ExperimentName,Subject,Session,Age,Clock.Information,Clock.Scale,Display.RefreshRate,Group,Handedness,Name,RandomSeed,ResearcherID,SessionDate,SessionTime,SessionTimeUtc,Sex,Block,condlist,condlist.Cycle,condlist.Sample,List1,List1.Cycle,List1.Sample,Procedure[Block],Running[Block],Trial,breaklist1,breaklist1.Cycle,breaklist1.Sample,correct[Trial],fishconds,fishconds.Cycle,fishconds.Sample,image[Trial],mooseconds,mooseconds.Cycle,mooseconds.Sample,pracanimalpic.ACC,pracanimalpic.CRESP,pracanimalpic.DurationError,pracanimalpic.OnsetDelay,pracanimalpic.OnsetTime,pracanimalpic.RESP,pracanimalpic.RT,pracanimalpic.RTTime,praclists,praclists.Cycle,praclists.Sample,Procedure[Trial],Running[Trial],sheepconds,sheepconds.Cycle,sheepconds.Sample,sound1[Trial],sound2[Trial],squidconds,squidconds.Cycle,squidconds.Sample,SubTrial,animalpic.ACC,animalpic.CRESP,animalpic.DurationError,animalpic.OnsetDelay,animalpic.OnsetTime,animalpic.RESP,animalpic.RT,animalpic.RTTime,CellLabel,CellNumber,cond,correct[SubTrial],fish1,fish1l,fish2,fish2l,fish3,fish3l,fishsmall,fishsmall.Cycle,fishsmall.Sample,image[SubTrial],ITI,moose1,moose1l,moose2,moose2l,moose3,moose3l,moosesmall,moosesmall.Cycle,moosesmall.Sample,Procedure[SubTrial],respdisp.ACC,respdisp.CRESP,respdisp.DurationError,respdisp.OnsetDelay,respdisp.OnsetTime,respdisp.RESP,respdisp.RT,respdisp.RTTime,Running[SubTrial],sheep1,sheep1l,sheep2,sheep2l,sheep3,sheep3l,sheepsmall,sheepsmall.Cycle,sheepsmall.Sample,sound1[SubTrial],sound2[SubTrial],squid1,squid1l,squid2,squid2l,squid3,squid3l,squidsmall,squidsmall.Cycle,squidsmall.Sample,tag
numbMap_ERP_TRNshortSMALL,1,2,0,"<?xml version=""1.0""?><Clock><Description>E-Prime SNTP Realtime Clock</Description><Version>2.0.8.50</Version><StartTime><DateUtc>2014-03-30T20:12:28Z</DateUtc><Timestamp>-820405327</Timestamp><Native>3605198799.429633792</Native><Native1>3605198799</Native1><Native2>429633792</Native2></StartTime><NTPServer><IP>10.0.0.42</IP><Port>123</Port></NTPServer></Clock>",1,59.941,1,left,,-1927237857,1,3/30/2014,15:12:29,8:12:29 PM,male,1,2,1,1,,,,sheep,condlist,1,,,,,,,,,,,,,,,,,,,,,,,SHSML,sheepconds,1,1,1,,,,,,1,1,4,-999999,17,70751,4,630,71381,smlg,33,small,4,,,,,,,,,,sheep/three/3sheep_1.bmp,2293,,,,,,,,,,trialproc,0,,0,0,0,,0,0,sheepsmall,,,,,sheep/three/3sheep_1.bmp,1,6,1,1,1.wav,sheep.wav,,,,,,,,,,103
numbMap_ERP_TRNshortSMALL,1,2,0,"<?xml version=""1.0""?><Clock><Description>E-Prime SNTP Realtime Clock</Description><Version>2.0.8.50</Version><StartTime><DateUtc>2014-03-30T20:12:28Z</DateUtc><Timestamp>-820405327</Timestamp><Native>3605198799.429633792</Native><Native1>3605198799</Native1><Native2>429633792</Native2></StartTime><NTPServer><IP>10.0.0.42</IP><Port>123</Port></NTPServer></Clock>",1,59.941,1,left,,-1927237857,1,3/30/2014,15:12:29,8:12:29 PM,male,1,2,1,1,,,,sheep,condlist,2,,,,,,,,,,,,,,,,,,,,,,,SHSML,sheepconds,1,2,2,,,,,,1,0,1,-999999,18,77141,3,942,78083,smmed,28,small,1,,,,,,,,,,sheep/one/1sheep_1.bmp,2477,,,,,,,,,,trialproc,0,,0,0,0,,0,0,sheepsmall,sheep/one/1sheep_1.bmp,1,,,,,1,1,2,2.wav,sheep.wav,,,,,,,,,,201
numbMap_ERP_TRNshortSMALL,1,2,0,"<?xml version=""1.0""?><Clock><Description>E-Prime SNTP Realtime Clock</Description><Version>2.0.8.50</Version><StartTime><DateUtc>2014-03-30T20:12:28Z</DateUtc><Timestamp>-820405327</Timestamp><Native>3605198799.429633792</Native><Native1>3605198799</Native1><Native2>429633792</Native2></StartTime><NTPServer><IP>10.0.0.42</IP><Port>123</Port></NTPServer></Clock>",1,59.941,1,left,,-1927237857,1,3/30/2014,15:12:29,8:12:29 PM,male,1,2,1,1,,,,sheep,condlist,3,,,,,,,,,,,,,,,,,,,,,,,SHSML,sheepconds,1,3,3,,,,,,1,1,1,-999999,18,83998,1,648,84646,smsm,32,small,1,,,,,,,,,,sheep/two/2sheep_1.bmp,2265,,,,,,,,,,trialproc,0,,0,0,0,,0,0,sheepsmall,,,sheep/two/2sheep_1.bmp,1,,,5,1,3,3.wav,sheep.wav,,,,,,,,,,302
numbMap_ERP_TRNshortSMALL,1,2,0,"<?xml version=""1.0""?><Clock><Description>E-Prime SNTP Realtime Clock</Description><Version>2.0.8.50</Version><StartTime><DateUtc>2014-03-30T20:12:28Z</DateUtc><Timestamp>-820405327</Timestamp><Native>3605198799.429633792</Native><Native1>3605198799</Native1><Native2>429633792</Native2></StartTime><NTPServer><IP>10.0.0.42</IP><Port>123</Port></NTPServer></Clock>",1,59.941,1,left,,-1927237857,1,3/30/2014,15:12:29,8:12:29 PM,male,1,2,1,1,,,,sheep,condlist,4,,,,,,,,,,,,,,,,,,,,,,,SHSML,sheepconds,1,4,4,,,,,,1,1,4,-999999,18,90371,4,573,90944,smmed,29,small,4,,,,,,,,,,sheep/two/2sheep_2.bmp,2357,,,,,,,,,,trialproc,0,,0,0,0,,0,0,sheepsmall,,,sheep/two/2sheep_2.bmp,2,,,2,1,4,1.wav,sheep.wav,,,,,,,,,,102
numbMap_ERP_TRNshortSMALL,1,2,0,"<?xml version=""1.0""?><Clock><Description>E-Prime SNTP Realtime Clock</Description><Version>2.0.8.50</Version><StartTime><DateUtc>2014-03-30T20:12:28Z</DateUtc><Timestamp>-820405327</Timestamp><Native>3605198799.429633792</Native><Native1>3605198799</Native1><Native2>429633792</Native2></StartTime><NTPServer><IP>10.0.0.42</IP><Port>123</Port></NTPServer></Clock>",1,59.941,1,left,,-1927237857,1,3/30/2014,15:12:29,8:12:29 PM,male,1,2,1,1,,,,sheep,condlist,5,,,,,,,,,,,,,,,,,,,,,,,SHSML,sheepconds,1,5,5,,,,,,1,0,1,0,18,96727,,0,0,smlg,31,small,1,,,,,,,,,,sheep/one/1sheep_2.bmp,2251,,,,,,,,,,trialproc,0,1,-999999,1,97728,4,1554,99282,sheepsmall,sheep/one/1sheep_2.bmp,2,,,,,4,1,5,3.wav,sheep.wav,,,,,,,,,,301
numbMap_ERP_TRNshortSMALL,1,2,0,"<?xml version=""1.0""?><Clock><Description>E-Prime SNTP Realtime Clock</Description><Version>2.0.8.50</Version><StartTime><DateUtc>2014-03-30T20:12:28Z</DateUtc><Timestamp>-820405327</Timestamp><Native>3605198799.429633792</Native><Native1>3605198799</Native1><Native2>429633792</Native2></StartTime><NTPServer><IP>10.0.0.42</IP><Port>123</Port></NTPServer></Clock>",1,59.941,1,left,,-1927237857,1,3/30/2014,15:12:29,8:12:29 PM,male,1,2,1,1,,,,sheep,condlist,6,,,,,,,,,,,,,,,,,,,,,,,SHSML,sheepconds,1,6,6,,,,,,1,1,4,-999999,18,104985,4,425,105410,smsm,30,small,4,,,,,,,,,,sheep/three/3sheep_2.bmp,2153,,,,,,,,,,trialproc,0,1,-999999,1,97728,4,1554,99282,sheepsmall,,,,,sheep/three/3sheep_2.bmp,2,3,1,6,2.wav,sheep.wav,,,,,,,,,,203
numbMap_ERP_TRNshortSMALL,1,2,0,"<?xml version=""1.0""?><Clock><Description>E-Prime SNTP Realtime Clock</Description><Version>2.0.8.50</Version><StartTime><DateUtc>2014-03-30T20:12:28Z</DateUtc><Timestamp>-820405327</Timestamp><Native>3605198799.429633792</Native><Native1>3605198799</Native1><Native2>429633792</Native2></StartTime><NTPServer><IP>10.0.0.42</IP><Port>123</Port></NTPServer></Clock>",1,59.941,1,left,,-1927237857,1,3/30/2014,15:12:29,8:12:29 PM,male,1,2,1,1,,,,sheep,condlist,7,,,,,,,,,,,,,,,,,,,,,,,SHSML,sheepconds,1,7,7,,,,,,1,0,1,-999999,18,111008,2,386,111394,smmed,28,small,1,,,,,,,,,,sheep/one/1sheep_3.bmp,2282,,,,,,,,,,trialproc,0,1,-999999,1,97728,4,1554,99282,sheepsmall,sheep/one/1sheep_3.bmp,3,,,,,1,2,7,2.wav,sheep.wav,,,,,,,,,,201
numbMap_ERP_TRNshortSMALL,1,2,0,"<?xml version=""1.0""?><Clock><Description>E-Prime SNTP Realtime Clock</Description><Version>2.0.8.50</Version><StartTime><DateUtc>2014-03-30T20:12:28Z</DateUtc><Timestamp>-820405327</Timestamp><Native>3605198799.429633792</Native><Native1>3605198799</Native1><Native2>429633792</Native2></StartTime><NTPServer><IP>10.0.0.42</IP><Port>123</Port></NTPServer></Clock>",1,59.941,1,left,,-1927237857,1,3/30/2014,15:12:29,8:12:29 PM,male,1,2,1,1,,,,sheep,condlist,8,,,,,,,,,,,,,,,,,,,,,,,SHSML,sheepconds,1,8,8,,,,,,1,0,1,-999999,16,117130,3,2,117132,smsm,32,small,1,,,,,,,,,,sheep/two/2sheep_3.bmp,2013,,,,,,,,,,trialproc,0,1,-999999,1,97728,4,1554,99282,sheepsmall,,,sheep/two/2sheep_3.bmp,3,,,5,2,8,3.wav,sheep.wav,,,,,,,,,,302
numbMap_ERP_TRNshortSMALL,1,2,0,"<?xml version=""1.0""?><Clock><Description>E-Prime SNTP Realtime Clock</Description><Version>2.0.8.50</Version><StartTime><DateUtc>2014-03-30T20:12:28Z</DateUtc><Timestamp>-820405327</Timestamp><Native>3605198799.429633792</Native><Native1>3605198799</Native1><Native2>429633792</Native2></StartTime><NTPServer><IP>10.0.0.42</IP><Port>123</Port></NTPServer></Clock>",1,59.941,1,left,,-1927237857,1,3/30/2014,15:12:29,8:12:29 PM,male,1,2,1,1,,,,sheep,condlist,9,,,,,,,,,,,,,,,,,,,,,,,SHSML,sheepconds,1,9,9,,,,,,1,0,4,0,17,122602,,0,0,smmed,29,small,4,,,,,,,,,,sheep/two/2sheep_4.bmp,2017,,,,,,,,,,trialproc,1,4,-999999,1,123603,4,6191,129794,sheepsmall,,,sheep/two/2sheep_4.bmp,4,,,2,2,9,1.wav,sheep.wav,,,,,,,,,,102
numbMap_ERP_TRNshortSMALL,1,2,0,"<?xml version=""1.0""?><Clock><Description>E-Prime SNTP Realtime Clock</Description><Version>2.0.8.50</Version><StartTime><DateUtc>2014-03-30T20:12:28Z</DateUtc><Timestamp>-820405327</Timestamp><Native>3605198799.429633792</Native><Native1>3605198799</Native1><Native2>429633792</Native2></StartTime><NTPServer><IP>10.0.0.42</IP><Port>123</Port></NTPServer></Clock>",1,59.941,1,left,,-1927237857,1,3/30/2014,15:12:29,8:12:29 PM,male,1,2,1,1,,,,sheep,condlist,10,,,,,,,,,,,,,,,,,,,,,,,SHSML,sheepconds,1,10,10,,,,,,1,0,4,-999999,18,135282,2,510,135792,smlg,33,small,4,,,,,,,,,,sheep/three/3sheep_3.bmp,2142,,,,,,,,,,trialproc,1,4,-999999,1,123603,4,6191,129794,sheepsmall,,,,,sheep/three/3sheep_3.bmp,3,6,2,10,1.wav,sheep.wav,,,,,,,,,,103
numbMap_ERP_TRNshortSMALL,1,2,0,"<?xml version=""1.0""?><Clock><Description>E-Prime SNTP Realtime Clock</Description><Version>2.0.8.50</Version><StartTime><DateUtc>2014-03-30T20:12:28Z</DateUtc><Timestamp>-820405327</Timestamp><Native>3605198799.429633792</Native><Native1>3605198799</Native1><Native2>429633792</Native2></StartTime><NTPServer><IP>10.0.0.42</IP><Port>123</Port></NTPServer></Clock>",1,59.941,1,left,,-1927237857,1,3/30/2014,15:12:29,8:12:29 PM,male,1,2,1,1,,,,sheep,condlist,11,,,,,,,,,,,,,,,,,,,,,,,SHSML,sheepconds,1,11,11,,,,,,1,0,1,-999999,18,141388,3,582,141970,smlg,31,small,1,,,,,,,,,,sheep/one/1sheep_4.bmp,2060,,,,,,,,,,trialproc,1,4,-999999,1,123603,4,6191,129794,sheepsmall,sheep/one/1sheep_4.bmp,4,,,,,4,2,11,3.wav,sheep.wav,,,,,,,,,,301
numbMap_ERP_TRNshortSMALL,1,2,0,"<?xml version=""1.0""?><Clock><Description>E-Prime SNTP Realtime Clock</Description><Version>2.0.8.50</Version><StartTime><DateUtc>2014-03-30T20:12:28Z</DateUtc><Timestamp>-820405327</Timestamp><Native>3605198799.429633792</Native><Native1>3605198799</Native1><Native2>429633792</Native2></StartTime><NTPServer><IP>10.0.0.42</IP><Port>123</Port></NTPServer></Clock>",1,59.941,1,left,,-1927237857,1,3/30/2014,15:12:29,8:12:29 PM,male,1,2,1,1,,,,sheep,condlist,12,,,,,,,,,,,,,,,,,,,,,,,SHSML,sheepconds,1,12,12,,,,,,1,0,4,-999999,18,147494,1,401,147895,smsm,30,small,4,,,,,,,,,,sheep/three/3sheep_4.bmp,2040,,,,,,,,,,trialproc,1,4,-999999,1,123603,4,6191,129794,sheepsmall,,,,,sheep/three/3sheep_4.bmp,4,3,2,12,2.wav,sheep.wav,,,,,,,,,,203
numbMap_ERP_TRNshortSMALL,1,2,0,"<?xml version=""1.0""?><Clock><Description>E-Prime SNTP Realtime Clock</Description><Version>2.0.8.50</Version><StartTime><DateUtc>2014-03-30T20:12:28Z</DateUtc><Timestamp>-820405327</Timestamp><Native>3605198799.429633792</Native><Native1>3605198799</Native1><Native2>429633792</Native2></StartTime><NTPServer><IP>10.0.0.42</IP><Port>123</Port></NTPServer></Clock>",1,59.941,1,left,,-1927237857,1,3/30/2014,15:12:29,8:12:29 PM,male,1,2,1,1,,,,sheep,condlist,13,,,,,,,,,,,,,,,,,,,,,,,SHSML,sheepconds,1,13,13,,,,,,1,1,4,-999999,17,153399,4,341,153740,smlg,33,small,4,,,,,,,,,,sheep/three/3sheep_5.bmp,2479,,,,,,,,,,trialproc,1,4,-999999,1,123603,4,6191,129794,sheepsmall,,,,,sheep/three/3sheep_5.bmp,5,6,3,13,1.wav,sheep.wav,,,,,,,,,,103
numbMap_ERP_TRNshortSMALL,1,2,0,"<?xml version=""1.0""?><Clock><Description>E-Prime SNTP Realtime Clock</Description><Version>2.0.8.50</Version><StartTime><DateUtc>2014-03-30T20:12:28Z</DateUtc><Timestamp>-820405327</Timestamp><Native>3605198799.429633792</Native><Native1>3605198799</Native1><Native2>429633792</Native2></StartTime><NTPServer><IP>10.0.0.42</IP><Port>123</Port></NTPServer></Clock>",1,59.941,1,left,,-1927237857,1,3/30/2014,15:12:29,8:12:29 PM,male,1,2,1,1,,,,sheep,condlist,14,,,,,,,,,,,,,,,,,,,,,,,SHSML,sheepconds,1,14,14,,,,,,1,1,4,-999999,17,159672,4,467,160139,smmed,29,small,4,,,,,,,,,,sheep/two/2sheep_5.bmp,2044,,,,,,,,,,trialproc,1,4,-999999,1,123603,4,6191,129794,sheepsmall,,,sheep/two/2sheep_5.bmp,5,,,2,3,14,1.wav,sheep.wav,,,,,,,,,,102
numbMap_ERP_TRNshortSMALL,1,2,0,"<?xml version=""1.0""?><Clock><Description>E-Prime SNTP Realtime Clock</Description><Version>2.0.8.50</Version><StartTime><DateUtc>2014-03-30T20:12:28Z</DateUtc><Timestamp>-820405327</Timestamp><Native>3605198799.429633792</Native><Native1>3605198799</Native1><Native2>429633792</Native2></StartTime><NTPServer><IP>10.0.0.42</IP><Port>123</Port></NTPServer></Clock>",1,59.941,1,left,,-1927237857,1,3/30/2014,15:12:29,8:12:29 PM,male,1,2,1,1,,,,sheep,condlist,15,,,,,,,,,,,,,,,,,,,,,,,SHSML,sheepconds,1,15,15,,,,,,1,0,1,-999999,18,165645,4,555,166200,smlg,31,small,1,,,,,,,,,,sheep/one/1sheep_5.bmp,2478,,,,,,,,,,trialproc,1,4,-999999,1,123603,4,6191,129794,sheepsmall,sheep/one/1sheep_5.bmp,5,,,,,4,3,15,3.wav,sheep.wav,,,,,,,,,,301
numbMap_ERP_TRNshortSMALL,1,2,0,"<?xml version=""1.0""?><Clock><Description>E-Prime SNTP Realtime Clock</Description><Version>2.0.8.50</Version><StartTime><DateUtc>2014-03-30T20:12:28Z</DateUtc><Timestamp>-820405327</Timestamp><Native>3605198799.429633792</Native><Native1>3605198799</Native1><Native2>429633792</Native2></StartTime><NTPServer><IP>10.0.0.42</IP><Port>123</Port></NTPServer></Clock>",1,59.941,1,left,,-1927237857,1,3/30/2014,15:12:29,8:12:29 PM,male,1,2,1,1,,,,sheep,condlist,16,,,,,,,,,,,,,,,,,,,,,,,SHSML,sheepconds,1,16,16,,,,,,1,0,1,-999999,18,172135,4,586,172721,smsm,32,small,1,,,,,,,,,,sheep/two/2sheep_1.bmp,2146,,,,,,,,,,trialproc,1,4,-999999,1,123603,4,6191,129794,sheepsmall,,,sheep/two/2sheep_1.bmp,1,,,5,3,16,3.wav,sheep.wav,,,,,,,,,,302
numbMap_ERP_TRNshortSMALL,1,2,0,"<?xml version=""1.0""?><Clock><Description>E-Prime SNTP Realtime Clock</Description><Version>2.0.8.50</Version><StartTime><DateUtc>2014-03-30T20:12:28Z</DateUtc><Timestamp>-820405327</Timestamp><Native>3605198799.429633792</Native><Native1>3605198799</Native1><Native2>429633792</Native2></StartTime><NTPServer><IP>10.0.0.42</IP><Port>123</Port></NTPServer></Clock>",1,59.941,1,left,,-1927237857,1,3/30/2014,15:12:29,8:12:29 PM,male,1,2,1,1,,,,sheep,condlist,17,,,,,,,,,,,,,,,,,,,,,,,SHSML,sheepconds,1,17,17,,,,,,1,0,1,-999999,18,178324,4,358,178682,smmed,28,small,1,,,,,,,,,,sheep/one/1sheep_1.bmp,2158,,,,,,,,,,trialproc,1,4,-999999,1,123603,4,6191,129794,sheepsmall,sheep/one/1sheep_1.bmp,1,,,,,1,3,17,2.wav,sheep.wav,,,,,,,,,,201
numbMap_ERP_TRNshortSMALL,1,2,0,"<?xml version=""1.0""?><Clock><Description>E-Prime SNTP Realtime Clock</Description><Version>2.0.8.50</Version><StartTime><DateUtc>2014-03-30T20:12:28Z</DateUtc><Timestamp>-820405327</Timestamp><Native>3605198799.429633792</Native><Native1>3605198799</Native1><Native2>429633792</Native2></StartTime><NTPServer><IP>10.0.0.42</IP><Port>123</Port></NTPServer></Clock>",1,59.941,1,left,,-1927237857,1,3/30/2014,15:12:29,8:12:29 PM,male,1,2,1,1,,,,sheep,condlist,18,,,,,,,,,,,,,,,,,,,,,,,SHSML,sheepconds,1,18,18,,,,,,1,0,4,-999999,17,184313,3,608,184921,smsm,30,small,4,,,,,,,,,,sheep/three/3sheep_1.bmp,2062,,,,,,,,,,trialproc,1,4,-999999,1,123603,4,6191,129794,sheepsmall,,,,,sheep/three/3sheep_1.bmp,1,3,3,18,2.wav,sheep.wav,,,,,,,,,,203
numbMap_ERP_TRNshortSMALL,1,2,0,"<?xml version=""1.0""?><Clock><Description>E-Prime SNTP Realtime Clock</Description><Version>2.0.8.50</Version><StartTime><DateUtc>2014-03-30T20:12:28Z</DateUtc><Timestamp>-820405327</Timestamp><Native>3605198799.429633792</Native><Native1>3605198799</Native1><Native2>429633792</Native2></StartTime><NTPServer><IP>10.0.0.42</IP><Port>123</Port></NTPServer></Clock>",1,59.941,1,left,,-1927237857,1,3/30/2014,15:12:29,8:12:29 PM,male,1,2,1,1,,,,sheep,condlist,19,1,1,1,,,,,,,,,,,,,,,,,,,,breakproc,breaklist1,,,,,,,,,,,,,,,,,,,,,,,,,,,,,,,,,,,,,,,,,,,,,,,,,,,,,,,,,,,,,,,,,,,,,,,,
numbMap_ERP_TRNshortSMALL,1,2,0,"<?xml version=""1.0""?><Clock><Description>E-Prime SNTP Realtime Clock</Description><Version>2.0.8.50</Version><StartTime><DateUtc>2014-03-30T20:12:28Z</DateUtc><Timestamp>-820405327</Timestamp><Native>3605198799.429633792</Native><Native1>3605198799</Native1><Native2>429633792</Native2></StartTime><NTPServer><IP>10.0.0.42</IP><Port>123</Port></NTPServer></Clock>",1,59.941,1,left,,-1927237857,1,3/30/2014,15:12:29,8:12:29 PM,male,2,1,1,2,,,,squid,condlist,1,,,,,,,,,,,,,,,,,,,,,,,SQSML,squidconds,,,,,,1,1,1,1,0,1,-999999,34,203649,3,534,204183,smlg,31,small,1,,,,,,,,,,squid/one/1squid_1.bmp,2496,,,,,,,,,,trialproc,1,4,-999999,1,123603,4,6191,129794,squidsmall,,,,,,,,,,3r.wav,squidr.wav,squid/one/1squid_1.bmp,1,,,,,4,1,1,301
numbMap_ERP_TRNshortSMALL,1,2,0,"<?xml version=""1.0""?><Clock><Description>E-Prime SNTP Realtime Clock</Description><Version>2.0.8.50</Version><StartTime><DateUtc>2014-03-30T20:12:28Z</DateUtc><Timestamp>-820405327</Timestamp><Native>3605198799.429633792</Native><Native1>3605198799</Native1><Native2>429633792</Native2></StartTime><NTPServer><IP>10.0.0.42</IP><Port>123</Port></NTPServer></Clock>",1,59.941,1,left,,-1927237857,1,3/30/2014,15:12:29,8:12:29 PM,male,2,1,1,2,,,,squid,condlist,2,,,,,,,,,,,,,,,,,,,,,,,SQSML,squidconds,,,,,,1,2,2,1,0,4,0,34,210189,,0,0,smlg,33,small,4,,,,,,,,,,squid/three/3squid_1.bmp,2403,,,,,,,,,,trialproc,0,4,-999999,1,211190,1,5375,216565,squidsmall,,,,,,,,,,1r.wav,squidr.wav,,,,,squid/three/3squid_1.bmp,1,6,1,2,103
numbMap_ERP_TRNshortSMALL,1,2,0,"<?xml version=""1.0""?><Clock><Description>E-Prime SNTP Realtime Clock</Description><Version>2.0.8.50</Version><StartTime><DateUtc>2014-03-30T20:12:28Z</DateUtc><Timestamp>-820405327</Timestamp><Native>3605198799.429633792</Native><Native1>3605198799</Native1><Native2>429633792</Native2></StartTime><NTPServer><IP>10.0.0.42</IP><Port>123</Port></NTPServer></Clock>",1,59.941,1,left,,-1927237857,1,3/30/2014,15:12:29,8:12:29 PM,male,2,1,1,2,,,,squid,condlist,3,,,,,,,,,,,,,,,,,,,,,,,SQSML,squidconds,,,,,,1,3,3,1,1,1,-999999,34,222484,1,382,222866,smsm,32,small,1,,,,,,,,,,squid/two/2squid_1.bmp,2326,,,,,,,,,,trialproc,0,4,-999999,1,211190,1,5375,216565,squidsmall,,,,,,,,,,3r.wav,squidr.wav,,,squid/two/2squid_1.bmp,1,,,5,1,3,302
numbMap_ERP_TRNshortSMALL,1,2,0,"<?xml version=""1.0""?><Clock><Description>E-Prime SNTP Realtime Clock</Description><Version>2.0.8.50</Version><StartTime><DateUtc>2014-03-30T20:12:28Z</DateUtc><Timestamp>-820405327</Timestamp><Native>3605198799.429633792</Native><Native1>3605198799</Native1><Native2>429633792</Native2></StartTime><NTPServer><IP>10.0.0.42</IP><Port>123</Port></NTPServer></Clock>",1,59.941,1,left,,-1927237857,1,3/30/2014,15:12:29,8:12:29 PM,male,2,1,1,2,,,,squid,condlist,4,,,,,,,,,,,,,,,,,,,,,,,SQSML,squidconds,,,,,,1,4,4,1,0,4,-999999,51,228691,3,592,229283,smsm,30,small,4,,,,,,,,,,squid/three/3squid_2.bmp,2079,,,,,,,,,,trialproc,0,4,-999999,1,211190,1,5375,216565,squidsmall,,,,,,,,,,2r.wav,squidr.wav,,,,,squid/three/3squid_2.bmp,2,3,1,4,203
numbMap_ERP_TRNshortSMALL,1,2,0,"<?xml version=""1.0""?><Clock><Description>E-Prime SNTP Realtime Clock</Description><Version>2.0.8.50</Version><StartTime><DateUtc>2014-03-30T20:12:28Z</DateUtc><Timestamp>-820405327</Timestamp><Native>3605198799.429633792</Native><Native1>3605198799</Native1><Native2>429633792</Native2></StartTime><NTPServer><IP>10.0.0.42</IP><Port>123</Port></NTPServer></Clock>",1,59.941,1,left,,-1927237857,1,3/30/2014,15:12:29,8:12:29 PM,male,2,1,1,2,,,,squid,condlist,5,,,,,,,,,,,,,,,,,,,,,,,SQSML,squidconds,,,,,,1,5,5,1,0,1,-999999,34,234830,4,679,235509,smmed,28,small,1,,,,,,,,,,squid/one/1squid_2.bmp,2333,,,,,,,,,,trialproc,0,4,-999999,1,211190,1,5375,216565,squidsmall,,,,,,,,,,2r.wav,squidr.wav,squid/one/1squid_2.bmp,2,,,,,1,1,5,201
numbMap_ERP_TRNshortSMALL,1,2,0,"<?xml version=""1.0""?><Clock><Description>E-Prime SNTP Realtime Clock</Description><Version>2.0.8.50</Version><StartTime><DateUtc>2014-03-30T20:12:28Z</DateUtc><Timestamp>-820405327</Timestamp><Native>3605198799.429633792</Native><Native1>3605198799</Native1><Native2>429633792</Native2></StartTime><NTPServer><IP>10.0.0.42</IP><Port>123</Port></NTPServer></Clock>",1,59.941,1,left,,-1927237857,1,3/30/2014,15:12:29,8:12:29 PM,male,2,1,1,2,,,,squid,condlist,6,,,,,,,,,,,,,,,,,,,,,,,SQSML,squidconds,,,,,,1,6,6,1,0,4,-999999,18,241303,1,599,241902,smmed,29,small,4,,,,,,,,,,squid/two/2squid_2.bmp,2255,,,,,,,,,,trialproc,0,4,-999999,1,211190,1,5375,216565,squidsmall,,,,,,,,,,1r.wav,squidr.wav,,,squid/two/2squid_2.bmp,2,,,2,1,6,102
numbMap_ERP_TRNshortSMALL,1,2,0,"<?xml version=""1.0""?><Clock><Description>E-Prime SNTP Realtime Clock</Description><Version>2.0.8.50</Version><StartTime><DateUtc>2014-03-30T20:12:28Z</DateUtc><Timestamp>-820405327</Timestamp><Native>3605198799.429633792</Native><Native1>3605198799</Native1><Native2>429633792</Native2></StartTime><NTPServer><IP>10.0.0.42</IP><Port>123</Port></NTPServer></Clock>",1,59.941,1,left,,-1927237857,1,3/30/2014,15:12:29,8:12:29 PM,male,2,1,1,2,,,,squid,condlist,7,,,,,,,,,,,,,,,,,,,,,,,SQSML,squidconds,,,,,,1,7,7,1,0,1,-999999,18,247626,4,667,248293,smlg,31,small,1,,,,,,,,,,squid/one/1squid_3.bmp,2120,,,,,,,,,,trialproc,0,4,-999999,1,211190,1,5375,216565,squidsmall,,,,,,,,,,3r.wav,squidr.wav,squid/one/1squid_3.bmp,3,,,,,4,2,7,301
numbMap_ERP_TRNshortSMALL,1,2,0,"<?xml version=""1.0""?><Clock><Description>E-Prime SNTP Realtime Clock</Description><Version>2.0.8.50</Version><StartTime><DateUtc>2014-03-30T20:12:28Z</DateUtc><Timestamp>-820405327</Timestamp><Native>3605198799.429633792</Native><Native1>3605198799</Native1><Native2>429633792</Native2></StartTime><NTPServer><IP>10.0.0.42</IP><Port>123</Port></NTPServer></Clock>",1,59.941,1,left,,-1927237857,1,3/30/2014,15:12:29,8:12:29 PM,male,2,1,1,2,,,,squid,condlist,8,,,,,,,,,,,,,,,,,,,,,,,SQSML,squidconds,,,,,,1,8,8,1,0,1,-999999,35,253899,4,798,254697,smmed,28,small,1,,,,,,,,,,squid/one/1squid_4.bmp,2133,,,,,,,,,,trialproc,0,4,-999999,1,211190,1,5375,216565,squidsmall,,,,,,,,,,2r.wav,squidr.wav,squid/one/1squid_4.bmp,4,,,,,1,2,8,201
numbMap_ERP_TRNshortSMALL,1,2,0,"<?xml version=""1.0""?><Clock><Description>E-Prime SNTP Realtime Clock</Description><Version>2.0.8.50</Version><StartTime><DateUtc>2014-03-30T20:12:28Z</DateUtc><Timestamp>-820405327</Timestamp><Native>3605198799.429633792</Native><Native1>3605198799</Native1><Native2>429633792</Native2></StartTime><NTPServer><IP>10.0.0.42</IP><Port>123</Port></NTPServer></Clock>",1,59.941,1,left,,-1927237857,1,3/30/2014,15:12:29,8:12:29 PM,male,2,1,1,2,,,,squid,condlist,9,,,,,,,,,,,,,,,,,,,,,,,SQSML,squidconds,,,,,,1,9,9,1,1,4,-999999,34,260322,4,771,261093,smlg,33,small,4,,,,,,,,,,squid/three/3squid_3.bmp,2381,,,,,,,,,,trialproc,0,4,-999999,1,211190,1,5375,216565,squidsmall,,,,,,,,,,1r.wav,squidr.wav,,,,,squid/three/3squid_3.bmp,3,6,2,9,103
numbMap_ERP_TRNshortSMALL,1,2,0,"<?xml version=""1.0""?><Clock><Description>E-Prime SNTP Realtime Clock</Description><Version>2.0.8.50</Version><StartTime><DateUtc>2014-03-30T20:12:28Z</DateUtc><Timestamp>-820405327</Timestamp><Native>3605198799.429633792</Native><Native1>3605198799</Native1><Native2>429633792</Native2></StartTime><NTPServer><IP>10.0.0.42</IP><Port>123</Port></NTPServer></Clock>",1,59.941,1,left,,-1927237857,1,3/30/2014,15:12:29,8:12:29 PM,male,2,1,1,2,,,,squid,condlist,10,,,,,,,,,,,,,,,,,,,,,,,SQSML,squidconds,,,,,,1,10,10,1,0,4,0,17,266928,,0,0,smsm,30,small,4,,,,,,,,,,squid/three/3squid_4.bmp,2315,,,,,,,,,,trialproc,0,4,-999999,1,267929,1,9191,277120,squidsmall,,,,,,,,,,2r.wav,squidr.wav,,,,,squid/three/3squid_4.bmp,4,3,2,10,203
numbMap_ERP_TRNshortSMALL,1,2,0,"<?xml version=""1.0""?><Clock><Description>E-Prime SNTP Realtime Clock</Description><Version>2.0.8.50</Version><StartTime><DateUtc>2014-03-30T20:12:28Z</DateUtc><Timestamp>-820405327</Timestamp><Native>3605198799.429633792</Native><Native1>3605198799</Native1><Native2>429633792</Native2></StartTime><NTPServer><IP>10.0.0.42</IP><Port>123</Port></NTPServer></Clock>",1,59.941,1,left,,-1927237857,1,3/30/2014,15:12:29,8:12:29 PM,male,2,1,1,2,,,,squid,condlist,11,,,,,,,,,,,,,,,,,,,,,,,SQSML,squidconds,,,,,,1,11,11,1,1,4,-999999,34,282894,4,475,283369,smmed,29,small,4,,,,,,,,,,squid/two/2squid_3.bmp,2140,,,,,,,,,,trialproc,0,4,-999999,1,267929,1,9191,277120,squidsmall,,,,,,,,,,1r.wav,squidr.wav,,,squid/two/2squid_3.bmp,3,,,2,2,11,102
numbMap_ERP_TRNshortSMALL,1,2,0,"<?xml version=""1.0""?><Clock><Description>E-Prime SNTP Realtime Clock</Description><Version>2.0.8.50</Version><StartTime><DateUtc>2014-03-30T20:12:28Z</DateUtc><Timestamp>-820405327</Timestamp><Native>3605198799.429633792</Native><Native1>3605198799</Native1><Native2>429633792</Native2></StartTime><NTPServer><IP>10.0.0.42</IP><Port>123</Port></NTPServer></Clock>",1,59.941,1,left,,-1927237857,1,3/30/2014,15:12:29,8:12:29 PM,male,2,1,1,2,,,,squid,condlist,12,,,,,,,,,,,,,,,,,,,,,,,SQSML,squidconds,,,,,,1,12,12,1,0,1,-999999,35,288967,4,491,289458,smsm,32,small,1,,,,,,,,,,squid/two/2squid_4.bmp,2042,,,,,,,,,,trialproc,0,4,-999999,1,267929,1,9191,277120,squidsmall,,,,,,,,,,3r.wav,squidr.wav,,,squid/two/2squid_4.bmp,4,,,5,2,12,302
numbMap_ERP_TRNshortSMALL,1,2,0,"<?xml version=""1.0""?><Clock><Description>E-Prime SNTP Realtime Clock</Description><Version>2.0.8.50</Version><StartTime><DateUtc>2014-03-30T20:12:28Z</DateUtc><Timestamp>-820405327</Timestamp><Native>3605198799.429633792</Native><Native1>3605198799</Native1><Native2>429633792</Native2></StartTime><NTPServer><IP>10.0.0.42</IP><Port>123</Port></NTPServer></Clock>",1,59.941,1,left,,-1927237857,1,3/30/2014,15:12:29,8:12:29 PM,male,2,1,1,2,,,,squid,condlist,13,,,,,,,,,,,,,,,,,,,,,,,SQSML,squidconds,,,,,,1,13,13,1,0,4,-999999,17,294939,3,505,295444,smsm,30,small,4,,,,,,,,,,squid/three/3squid_5.bmp,2117,,,,,,,,,,trialproc,0,4,-999999,1,267929,1,9191,277120,squidsmall,,,,,,,,,,2r.wav,squidr.wav,,,,,squid/three/3squid_5.bmp,5,3,3,13,203
numbMap_ERP_TRNshortSMALL,1,2,0,"<?xml version=""1.0""?><Clock><Description>E-Prime SNTP Realtime Clock</Description><Version>2.0.8.50</Version><StartTime><DateUtc>2014-03-30T20:12:28Z</DateUtc><Timestamp>-820405327</Timestamp><Native>3605198799.429633792</Native><Native1>3605198799</Native1><Native2>429633792</Native2></StartTime><NTPServer><IP>10.0.0.42</IP><Port>123</Port></NTPServer></Clock>",1,59.941,1,left,,-1927237857,1,3/30/2014,15:12:29,8:12:29 PM,male,2,1,1,2,,,,squid,condlist,14,,,,,,,,,,,,,,,,,,,,,,,SQSML,squidconds,,,,,,1,14,14,1,0,1,-999999,18,301012,4,499,301511,smlg,31,small,1,,,,,,,,,,squid/one/1squid_5.bmp,2041,,,,,,,,,,trialproc,0,4,-999999,1,267929,1,9191,277120,squidsmall,,,,,,,,,,3r.wav,squidr.wav,squid/one/1squid_5.bmp,5,,,,,4,3,14,301
numbMap_ERP_TRNshortSMALL,1,2,0,"<?xml version=""1.0""?><Clock><Description>E-Prime SNTP Realtime Clock</Description><Version>2.0.8.50</Version><StartTime><DateUtc>2014-03-30T20:12:28Z</DateUtc><Timestamp>-820405327</Timestamp><Native>3605198799.429633792</Native><Native1>3605198799</Native1><Native2>429633792</Native2></StartTime><NTPServer><IP>10.0.0.42</IP><Port>123</Port></NTPServer></Clock>",1,59.941,1,left,,-1927237857,1,3/30/2014,15:12:29,8:12:29 PM,male,2,1,1,2,,,,squid,condlist,15,,,,,,,,,,,,,,,,,,,,,,,SQSML,squidconds,,,,,,1,15,15,1,0,1,-999999,34,307001,3,631,307632,smsm,32,small,1,,,,,,,,,,squid/two/2squid_5.bmp,2292,,,,,,,,,,trialproc,0,4,-999999,1,267929,1,9191,277120,squidsmall,,,,,,,,,,3r.wav,squidr.wav,,,squid/two/2squid_5.bmp,5,,,5,3,15,302
numbMap_ERP_TRNshortSMALL,1,2,0,"<?xml version=""1.0""?><Clock><Description>E-Prime SNTP Realtime Clock</Description><Version>2.0.8.50</Version><StartTime><DateUtc>2014-03-30T20:12:28Z</DateUtc><Timestamp>-820405327</Timestamp><Native>3605198799.429633792</Native><Native1>3605198799</Native1><Native2>429633792</Native2></StartTime><NTPServer><IP>10.0.0.42</IP><Port>123</Port></NTPServer></Clock>",1,59.941,1,left,,-1927237857,1,3/30/2014,15:12:29,8:12:29 PM,male,2,1,1,2,,,,squid,condlist,16,,,,,,,,,,,,,,,,,,,,,,,SQSML,squidconds,,,,,,1,16,16,1,1,4,-999999,17,313408,4,415,313823,smmed,29,small,4,,,,,,,,,,squid/two/2squid_1.bmp,2043,,,,,,,,,,trialproc,0,4,-999999,1,267929,1,9191,277120,squidsmall,,,,,,,,,,1r.wav,squidr.wav,,,squid/two/2squid_1.bmp,1,,,2,3,16,102
numbMap_ERP_TRNshortSMALL,1,2,0,"<?xml version=""1.0""?><Clock><Description>E-Prime SNTP Realtime Clock</Description><Version>2.0.8.50</Version><StartTime><DateUtc>2014-03-30T20:12:28Z</DateUtc><Timestamp>-820405327</Timestamp><Native>3605198799.429633792</Native><Native1>3605198799</Native1><Native2>429633792</Native2></StartTime><NTPServer><IP>10.0.0.42</IP><Port>123</Port></NTPServer></Clock>",1,59.941,1,left,,-1927237857,1,3/30/2014,15:12:29,8:12:29 PM,male,2,1,1,2,,,,squid,condlist,17,,,,,,,,,,,,,,,,,,,,,,,SQSML,squidconds,,,,,,1,17,17,1,0,1,-999999,18,319330,4,882,320212,smmed,28,small,1,,,,,,,,,,squid/one/1squid_1.bmp,2250,,,,,,,,,,trialproc,0,4,-999999,1,267929,1,9191,277120,squidsmall,,,,,,,,,,2r.wav,squidr.wav,squid/one/1squid_1.bmp,1,,,,,1,3,17,201
numbMap_ERP_TRNshortSMALL,1,2,0,"<?xml version=""1.0""?><Clock><Description>E-Prime SNTP Realtime Clock</Description><Version>2.0.8.50</Version><StartTime><DateUtc>2014-03-30T20:12:28Z</DateUtc><Timestamp>-820405327</Timestamp><Native>3605198799.429633792</Native><Native1>3605198799</Native1><Native2>429633792</Native2></StartTime><NTPServer><IP>10.0.0.42</IP><Port>123</Port></NTPServer></Clock>",1,59.941,1,left,,-1927237857,1,3/30/2014,15:12:29,8:12:29 PM,male,2,1,1,2,,,,squid,condlist,18,,,,,,,,,,,,,,,,,,,,,,,SQSML,squidconds,,,,,,1,18,18,1,0,4,0,16,325903,,0,0,smlg,33,small,4,,,,,,,,,,squid/three/3squid_1.bmp,2498,,,,,,,,,,trialproc,0,4,-999999,1,326904,1,86,326990,squidsmall,,,,,,,,,,1r.wav,squidr.wav,,,,,squid/three/3squid_1.bmp,1,6,3,18,103
numbMap_ERP_TRNshortSMALL,1,2,0,"<?xml version=""1.0""?><Clock><Description>E-Prime SNTP Realtime Clock</Description><Version>2.0.8.50</Version><StartTime><DateUtc>2014-03-30T20:12:28Z</DateUtc><Timestamp>-820405327</Timestamp><Native>3605198799.429633792</Native><Native1>3605198799</Native1><Native2>429633792</Native2></StartTime><NTPServer><IP>10.0.0.42</IP><Port>123</Port></NTPServer></Clock>",1,59.941,1,left,,-1927237857,1,3/30/2014,15:12:29,8:12:29 PM,male,2,1,1,2,,,,squid,condlist,19,1,2,2,,,,,,,,,,,,,,,,,,,,breakproc,breaklist1,,,,,,,,,,,,,,,,,,,,,,,,,,,,,,,,,,,,,,,,,,,,,,,,,,,,,,,,,,,,,,,,,,,,,,,,
numbMap_ERP_TRNshortSMALL,1,2,0,"<?xml version=""1.0""?><Clock><Description>E-Prime SNTP Realtime Clock</Description><Version>2.0.8.50</Version><StartTime><DateUtc>2014-03-30T20:12:28Z</DateUtc><Timestamp>-820405327</Timestamp><Native>3605198799.429633792</Native><Native1>3605198799</Native1><Native2>429633792</Native2></StartTime><NTPServer><IP>10.0.0.42</IP><Port>123</Port></NTPServer></Clock>",1,59.941,1,left,,-1927237857,1,3/30/2014,15:12:29,8:12:29 PM,male,3,3,1,3,,,,fish,condlist,1,,,,,1,1,1,,,,,,,,,,,,,,,,FSML,fishconds,,,,,,,,,1,0,1,-999999,18,342970,2,709,343679,smsm,32,small,1,,,fish/two/2fish_1.bmp,1,,,5,1,1,fish/two/2fish_1.bmp,2216,,,,,,,,,,trialproc,0,4,-999999,1,326904,1,86,326990,fishsmall,,,,,,,,,,3.wav,fish.wav,,,,,,,,,,302
numbMap_ERP_TRNshortSMALL,1,2,0,"<?xml version=""1.0""?><Clock><Description>E-Prime SNTP Realtime Clock</Description><Version>2.0.8.50</Version><StartTime><DateUtc>2014-03-30T20:12:28Z</DateUtc><Timestamp>-820405327</Timestamp><Native>3605198799.429633792</Native><Native1>3605198799</Native1><Native2>429633792</Native2></StartTime><NTPServer><IP>10.0.0.42</IP><Port>123</Port></NTPServer></Clock>",1,59.941,1,left,,-1927237857,1,3/30/2014,15:12:29,8:12:29 PM,male,3,3,1,3,,,,fish,condlist,2,,,,,1,2,2,,,,,,,,,,,,,,,,FSML,fishconds,,,,,,,,,1,0,1,-999999,18,349343,4,453,349796,smmed,28,small,1,fish/one/1fish_1.bmp,1,,,,,1,1,2,fish/one/1fish_1.bmp,2002,,,,,,,,,,trialproc,0,4,-999999,1,326904,1,86,326990,fishsmall,,,,,,,,,,2.wav,fish.wav,,,,,,,,,,201
numbMap_ERP_TRNshortSMALL,1,2,0,"<?xml version=""1.0""?><Clock><Description>E-Prime SNTP Realtime Clock</Description><Version>2.0.8.50</Version><StartTime><DateUtc>2014-03-30T20:12:28Z</DateUtc><Timestamp>-820405327</Timestamp><Native>3605198799.429633792</Native><Native1>3605198799</Native1><Native2>429633792</Native2></StartTime><NTPServer><IP>10.0.0.42</IP><Port>123</Port></NTPServer></Clock>",1,59.941,1,left,,-1927237857,1,3/30/2014,15:12:29,8:12:29 PM,male,3,3,1,3,,,,fish,condlist,3,,,,,1,3,3,,,,,,,,,,,,,,,,FSML,fishconds,,,,,,,,,1,1,4,-999999,18,355249,4,430,355679,smlg,33,small,4,,,,,fish/three/3fish_1.bmp,1,6,1,3,fish/three/3fish_1.bmp,2161,,,,,,,,,,trialproc,0,4,-999999,1,326904,1,86,326990,fishsmall,,,,,,,,,,1.wav,fish.wav,,,,,,,,,,103
numbMap_ERP_TRNshortSMALL,1,2,0,"<?xml version=""1.0""?><Clock><Description>E-Prime SNTP Realtime Clock</Description><Version>2.0.8.50</Version><StartTime><DateUtc>2014-03-30T20:12:28Z</DateUtc><Timestamp>-820405327</Timestamp><Native>3605198799.429633792</Native><Native1>3605198799</Native1><Native2>429633792</Native2></StartTime><NTPServer><IP>10.0.0.42</IP><Port>123</Port></NTPServer></Clock>",1,59.941,1,left,,-1927237857,1,3/30/2014,15:12:29,8:12:29 PM,male,3,3,1,3,,,,fish,condlist,4,,,,,1,4,4,,,,,,,,,,,,,,,,FSML,fishconds,,,,,,,,,1,1,1,-999999,18,361305,1,20,361325,smlg,31,small,1,fish/one/1fish_2.bmp,2,,,,,4,1,4,fish/one/1fish_2.bmp,2435,,,,,,,,,,trialproc,0,4,-999999,1,326904,1,86,326990,fishsmall,,,,,,,,,,3.wav,fish.wav,,,,,,,,,,301
numbMap_ERP_TRNshortSMALL,1,2,0,"<?xml version=""1.0""?><Clock><Description>E-Prime SNTP Realtime Clock</Description><Version>2.0.8.50</Version><StartTime><DateUtc>2014-03-30T20:12:28Z</DateUtc><Timestamp>-820405327</Timestamp><Native>3605198799.429633792</Native><Native1>3605198799</Native1><Native2>429633792</Native2></StartTime><NTPServer><IP>10.0.0.42</IP><Port>123</Port></NTPServer></Clock>",1,59.941,1,left,,-1927237857,1,3/30/2014,15:12:29,8:12:29 PM,male,3,3,1,3,,,,fish,condlist,5,,,,,1,5,5,,,,,,,,,,,,,,,,FSML,fishconds,,,,,,,,,1,1,4,-999999,18,367211,4,433,367644,smmed,29,small,4,,,fish/two/2fish_2.bmp,2,,,2,1,5,fish/two/2fish_2.bmp,2077,,,,,,,,,,trialproc,0,4,-999999,1,326904,1,86,326990,fishsmall,,,,,,,,,,1.wav,fish.wav,,,,,,,,,,102
numbMap_ERP_TRNshortSMALL,1,2,0,"<?xml version=""1.0""?><Clock><Description>E-Prime SNTP Realtime Clock</Description><Version>2.0.8.50</Version><StartTime><DateUtc>2014-03-30T20:12:28Z</DateUtc><Timestamp>-820405327</Timestamp><Native>3605198799.429633792</Native><Native1>3605198799</Native1><Native2>429633792</Native2></StartTime><NTPServer><IP>10.0.0.42</IP><Port>123</Port></NTPServer></Clock>",1,59.941,1,left,,-1927237857,1,3/30/2014,15:12:29,8:12:29 PM,male,3,3,1,3,,,,fish,condlist,6,,,,,1,6,6,,,,,,,,,,,,,,,,FSML,fishconds,,,,,,,,,1,0,4,-999999,17,373167,1,516,373683,smsm,30,small,4,,,,,fish/three/3fish_2.bmp,2,3,1,6,fish/three/3fish_2.bmp,2126,,,,,,,,,,trialproc,0,4,-999999,1,326904,1,86,326990,fishsmall,,,,,,,,,,2.wav,fish.wav,,,,,,,,,,203
numbMap_ERP_TRNshortSMALL,1,2,0,"<?xml version=""1.0""?><Clock><Description>E-Prime SNTP Realtime Clock</Description><Version>2.0.8.50</Version><StartTime><DateUtc>2014-03-30T20:12:28Z</DateUtc><Timestamp>-820405327</Timestamp><Native>3605198799.429633792</Native><Native1>3605198799</Native1><Native2>429633792</Native2></StartTime><NTPServer><IP>10.0.0.42</IP><Port>123</Port></NTPServer></Clock>",1,59.941,1,left,,-1927237857,1,3/30/2014,15:12:29,8:12:29 PM,male,3,3,1,3,,,,fish,condlist,7,,,,,1,7,7,,,,,,,,,,,,,,,,FSML,fishconds,,,,,,,,,1,0,4,-999999,17,379289,1,382,379671,smlg,33,small,4,,,,,fish/three/3fish_3.bmp,3,6,2,7,fish/three/3fish_3.bmp,2286,,,,,,,,,,trialproc,0,4,-999999,1,326904,1,86,326990,fishsmall,,,,,,,,,,1.wav,fish.wav,,,,,,,,,,103
numbMap_ERP_TRNshortSMALL,1,2,0,"<?xml version=""1.0""?><Clock><Description>E-Prime SNTP Realtime Clock</Description><Version>2.0.8.50</Version><StartTime><DateUtc>2014-03-30T20:12:28Z</DateUtc><Timestamp>-820405327</Timestamp><Native>3605198799.429633792</Native><Native1>3605198799</Native1><Native2>429633792</Native2></StartTime><NTPServer><IP>10.0.0.42</IP><Port>123</Port></NTPServer></Clock>",1,59.941,1,left,,-1927237857,1,3/30/2014,15:12:29,8:12:29 PM,male,3,3,1,3,,,,fish,condlist,8,,,,,1,8,8,,,,,,,,,,,,,,,,FSML,fishconds,,,,,,,,,1,0,4,-999999,18,385412,1,204,385616,smsm,30,small,4,,,,,fish/three/3fish_4.bmp,4,3,2,8,fish/three/3fish_4.bmp,2460,,,,,,,,,,trialproc,0,4,-999999,1,326904,1,86,326990,fishsmall,,,,,,,,,,2.wav,fish.wav,,,,,,,,,,203
numbMap_ERP_TRNshortSMALL,1,2,0,"<?xml version=""1.0""?><Clock><Description>E-Prime SNTP Realtime Clock</Description><Version>2.0.8.50</Version><StartTime><DateUtc>2014-03-30T20:12:28Z</DateUtc><Timestamp>-820405327</Timestamp><Native>3605198799.429633792</Native><Native1>3605198799</Native1><Native2>429633792</Native2></StartTime><NTPServer><IP>10.0.0.42</IP><Port>123</Port></NTPServer></Clock>",1,59.941,1,left,,-1927237857,1,3/30/2014,15:12:29,8:12:29 PM,male,3,3,1,3,,,,fish,condlist,9,,,,,1,9,9,,,,,,,,,,,,,,,,FSML,fishconds,,,,,,,,,1,1,4,-999999,17,391501,4,317,391818,smmed,29,small,4,,,fish/two/2fish_3.bmp,3,,,2,2,9,fish/two/2fish_3.bmp,2369,,,,,,,,,,trialproc,0,4,-999999,1,326904,1,86,326990,fishsmall,,,,,,,,,,1.wav,fish.wav,,,,,,,,,,102
numbMap_ERP_TRNshortSMALL,1,2,0,"<?xml version=""1.0""?><Clock><Description>E-Prime SNTP Realtime Clock</Description><Version>2.0.8.50</Version><StartTime><DateUtc>2014-03-30T20:12:28Z</DateUtc><Timestamp>-820405327</Timestamp><Native>3605198799.429633792</Native><Native1>3605198799</Native1><Native2>429633792</Native2></StartTime><NTPServer><IP>10.0.0.42</IP><Port>123</Port></NTPServer></Clock>",1,59.941,1,left,,-1927237857,1,3/30/2014,15:12:29,8:12:29 PM,male,3,3,1,3,,,,fish,condlist,10,,,,,1,10,10,,,,,,,,,,,,,,,,FSML,fishconds,,,,,,,,,1,0,1,-999999,18,397674,4,492,398166,smsm,32,small,1,,,fish/two/2fish_4.bmp,4,,,5,2,10,fish/two/2fish_4.bmp,2213,,,,,,,,,,trialproc,0,4,-999999,1,326904,1,86,326990,fishsmall,,,,,,,,,,3.wav,fish.wav,,,,,,,,,,302
numbMap_ERP_TRNshortSMALL,1,2,0,"<?xml version=""1.0""?><Clock><Description>E-Prime SNTP Realtime Clock</Description><Version>2.0.8.50</Version><StartTime><DateUtc>2014-03-30T20:12:28Z</DateUtc><Timestamp>-820405327</Timestamp><Native>3605198799.429633792</Native><Native1>3605198799</Native1><Native2>429633792</Native2></StartTime><NTPServer><IP>10.0.0.42</IP><Port>123</Port></NTPServer></Clock>",1,59.941,1,left,,-1927237857,1,3/30/2014,15:12:29,8:12:29 PM,male,3,3,1,3,,,,fish,condlist,11,,,,,1,11,11,,,,,,,,,,,,,,,,FSML,fishconds,,,,,,,,,1,1,1,-999999,18,403814,1,527,404341,smmed,28,small,1,fish/one/1fish_3.bmp,3,,,,,1,2,11,fish/one/1fish_3.bmp,2478,,,,,,,,,,trialproc,0,4,-999999,1,326904,1,86,326990,fishsmall,,,,,,,,,,2.wav,fish.wav,,,,,,,,,,201
numbMap_ERP_TRNshortSMALL,1,2,0,"<?xml version=""1.0""?><Clock><Description>E-Prime SNTP Realtime Clock</Description><Version>2.0.8.50</Version><StartTime><DateUtc>2014-03-30T20:12:28Z</DateUtc><Timestamp>-820405327</Timestamp><Native>3605198799.429633792</Native><Native1>3605198799</Native1><Native2>429633792</Native2></StartTime><NTPServer><IP>10.0.0.42</IP><Port>123</Port></NTPServer></Clock>",1,59.941,1,left,,-1927237857,1,3/30/2014,15:12:29,8:12:29 PM,male,3,3,1,3,,,,fish,condlist,12,,,,,1,12,12,,,,,,,,,,,,,,,,FSML,fishconds,,,,,,,,,1,1,1,-999999,18,410270,1,566,410836,smlg,31,small,1,fish/one/1fish_4.bmp,4,,,,,4,2,12,fish/one/1fish_4.bmp,2416,,,,,,,,,,trialproc,0,4,-999999,1,326904,1,86,326990,fishsmall,,,,,,,,,,3.wav,fish.wav,,,,,,,,,,301
numbMap_ERP_TRNshortSMALL,1,2,0,"<?xml version=""1.0""?><Clock><Description>E-Prime SNTP Realtime Clock</Description><Version>2.0.8.50</Version><StartTime><DateUtc>2014-03-30T20:12:28Z</DateUtc><Timestamp>-820405327</Timestamp><Native>3605198799.429633792</Native><Native1>3605198799</Native1><Native2>429633792</Native2></StartTime><NTPServer><IP>10.0.0.42</IP><Port>123</Port></NTPServer></Clock>",1,59.941,1,left,,-1927237857,1,3/30/2014,15:12:29,8:12:29 PM,male,3,3,1,3,,,,fish,condlist,13,,,,,1,13,13,,,,,,,,,,,,,,,,FSML,fishconds,,,,,,,,,1,1,4,-999999,18,416710,4,480,417190,smlg,33,small,4,,,,,fish/three/3fish_5.bmp,5,6,3,13,fish/three/3fish_5.bmp,2351,,,,,,,,,,trialproc,0,4,-999999,1,326904,1,86,326990,fishsmall,,,,,,,,,,1.wav,fish.wav,,,,,,,,,,103
numbMap_ERP_TRNshortSMALL,1,2,0,"<?xml version=""1.0""?><Clock><Description>E-Prime SNTP Realtime Clock</Description><Version>2.0.8.50</Version><StartTime><DateUtc>2014-03-30T20:12:28Z</DateUtc><Timestamp>-820405327</Timestamp><Native>3605198799.429633792</Native><Native1>3605198799</Native1><Native2>429633792</Native2></StartTime><NTPServer><IP>10.0.0.42</IP><Port>123</Port></NTPServer></Clock>",1,59.941,1,left,,-1927237857,1,3/30/2014,15:12:29,8:12:29 PM,male,3,3,1,3,,,,fish,condlist,14,,,,,1,14,14,,,,,,,,,,,,,,,,FSML,fishconds,,,,,,,,,1,0,4,0,18,422999,,0,0,smmed,29,small,4,,,fish/two/2fish_5.bmp,5,,,2,3,14,fish/two/2fish_5.bmp,2329,,,,,,,,,,trialproc,0,4,-999999,1,424000,1,7275,431275,fishsmall,,,,,,,,,,1.wav,fish.wav,,,,,,,,,,102
numbMap_ERP_TRNshortSMALL,1,2,0,"<?xml version=""1.0""?><Clock><Description>E-Prime SNTP Realtime Clock</Description><Version>2.0.8.50</Version><StartTime><DateUtc>2014-03-30T20:12:28Z</DateUtc><Timestamp>-820405327</Timestamp><Native>3605198799.429633792</Native><Native1>3605198799</Native1><Native2>429633792</Native2></StartTime><NTPServer><IP>10.0.0.42</IP><Port>123</Port></NTPServer></Clock>",1,59.941,1,left,,-1927237857,1,3/30/2014,15:12:29,8:12:29 PM,male,3,3,1,3,,,,fish,condlist,15,,,,,1,15,15,,,,,,,,,,,,,,,,FSML,fishconds,,,,,,,,,1,0,1,0,18,437063,,0,0,smmed,28,small,1,fish/one/1fish_5.bmp,5,,,,,1,3,15,fish/one/1fish_5.bmp,2044,,,,,,,,,,trialproc,1,1,-999999,1,438064,1,227,438291,fishsmall,,,,,,,,,,2.wav,fish.wav,,,,,,,,,,201
numbMap_ERP_TRNshortSMALL,1,2,0,"<?xml version=""1.0""?><Clock><Description>E-Prime SNTP Realtime Clock</Description><Version>2.0.8.50</Version><StartTime><DateUtc>2014-03-30T20:12:28Z</DateUtc><Timestamp>-820405327</Timestamp><Native>3605198799.429633792</Native><Native1>3605198799</Native1><Native2>429633792</Native2></StartTime><NTPServer><IP>10.0.0.42</IP><Port>123</Port></NTPServer></Clock>",1,59.941,1,left,,-1927237857,1,3/30/2014,15:12:29,8:12:29 PM,male,3,3,1,3,,,,fish,condlist,16,,,,,1,16,16,,,,,,,,,,,,,,,,FSML,fishconds,,,,,,,,,1,1,4,-999999,18,443803,4,930,444733,smsm,30,small,4,,,,,fish/three/3fish_1.bmp,1,3,3,16,fish/three/3fish_1.bmp,2153,,,,,,,,,,trialproc,1,1,-999999,1,438064,1,227,438291,fishsmall,,,,,,,,,,2.wav,fish.wav,,,,,,,,,,203
numbMap_ERP_TRNshortSMALL,1,2,0,"<?xml version=""1.0""?><Clock><Description>E-Prime SNTP Realtime Clock</Description><Version>2.0.8.50</Version><StartTime><DateUtc>2014-03-30T20:12:28Z</DateUtc><Timestamp>-820405327</Timestamp><Native>3605198799.429633792</Native><Native1>3605198799</Native1><Native2>429633792</Native2></StartTime><NTPServer><IP>10.0.0.42</IP><Port>123</Port></NTPServer></Clock>",1,59.941,1,left,,-1927237857,1,3/30/2014,15:12:29,8:12:29 PM,male,3,3,1,3,,,,fish,condlist,17,,,,,1,17,17,,,,,,,,,,,,,,,,FSML,fishconds,,,,,,,,,1,0,1,-999999,18,450343,4,294,450637,smlg,31,small,1,fish/one/1fish_1.bmp,1,,,,,4,3,17,fish/one/1fish_1.bmp,2268,,,,,,,,,,trialproc,1,1,-999999,1,438064,1,227,438291,fishsmall,,,,,,,,,,3.wav,fish.wav,,,,,,,,,,301
numbMap_ERP_TRNshortSMALL,1,2,0,"<?xml version=""1.0""?><Clock><Description>E-Prime SNTP Realtime Clock</Description><Version>2.0.8.50</Version><StartTime><DateUtc>2014-03-30T20:12:28Z</DateUtc><Timestamp>-820405327</Timestamp><Native>3605198799.429633792</Native><Native1>3605198799</Native1><Native2>429633792</Native2></StartTime><NTPServer><IP>10.0.0.42</IP><Port>123</Port></NTPServer></Clock>",1,59.941,1,left,,-1927237857,1,3/30/2014,15:12:29,8:12:29 PM,male,3,3,1,3,,,,fish,condlist,18,,,,,1,18,18,,,,,,,,,,,,,,,,FSML,fishconds,,,,,,,,,1,0,1,-999999,17,456365,4,399,456764,smsm,32,small,1,,,fish/two/2fish_1.bmp,1,,,5,3,18,fish/two/2fish_1.bmp,2135,,,,,,,,,,trialproc,1,1,-999999,1,438064,1,227,438291,fishsmall,,,,,,,,,,3.wav,fish.wav,,,,,,,,,,302
numbMap_ERP_TRNshortSMALL,1,2,0,"<?xml version=""1.0""?><Clock><Description>E-Prime SNTP Realtime Clock</Description><Version>2.0.8.50</Version><StartTime><DateUtc>2014-03-30T20:12:28Z</DateUtc><Timestamp>-820405327</Timestamp><Native>3605198799.429633792</Native><Native1>3605198799</Native1><Native2>429633792</Native2></StartTime><NTPServer><IP>10.0.0.42</IP><Port>123</Port></NTPServer></Clock>",1,59.941,1,left,,-1927237857,1,3/30/2014,15:12:29,8:12:29 PM,male,3,3,1,3,,,,fish,condlist,19,1,3,3,,,,,,,,,,,,,,,,,,,,breakproc,breaklist1,,,,,,,,,,,,,,,,,,,,,,,,,,,,,,,,,,,,,,,,,,,,,,,,,,,,,,,,,,,,,,,,,,,,,,,,
numbMap_ERP_TRNshortSMALL,2,2,0,"<?xml version=""1.0""?><Clock><Description>E-Prime SNTP Realtime Clock</Description><Version>2.0.8.50</Version><StartTime><DateUtc>2014-03-30T16:54:02Z</DateUtc><Timestamp>1300098392</Timestamp><Native>3605186893.2112706560</Native><Native1>3605186893</Native1><Native2>2112706560</Native2></StartTime><NTPServer><IP>10.0.0.42</IP><Port>123</Port></NTPServer></Clock>",1,59.941,1,left,,-1595484984,1,3/30/2014,11:54:02,4:54:02 PM,male,1,2,1,1,,,,sheep,condlist,1,,,,,,,,,,,,,,,,,,,,,,,SHSML,sheepconds,1,1,1,,,,,,1,0,4,0,34,109416,,0,0,smsm,30,small,4,,,,,,,,,,sheep/three/3sheep_1.bmp,2112,,,,,,,,,,trialproc,1,4,-999999,1,110417,4,2143,112560,sheepsmall,,,,,sheep/three/3sheep_1.bmp,1,3,1,1,2.wav,sheep.wav,,,,,,,,,,203
numbMap_ERP_TRNshortSMALL,2,2,0,"<?xml version=""1.0""?><Clock><Description>E-Prime SNTP Realtime Clock</Description><Version>2.0.8.50</Version><StartTime><DateUtc>2014-03-30T16:54:02Z</DateUtc><Timestamp>1300098392</Timestamp><Native>3605186893.2112706560</Native><Native1>3605186893</Native1><Native2>2112706560</Native2></StartTime><NTPServer><IP>10.0.0.42</IP><Port>123</Port></NTPServer></Clock>",1,59.941,1,left,,-1595484984,1,3/30/2014,11:54:02,4:54:02 PM,male,1,2,1,1,,,,sheep,condlist,2,,,,,,,,,,,,,,,,,,,,,,,SHSML,sheepconds,1,2,2,,,,,,1,0,1,0,34,118158,,0,0,smlg,31,small,1,,,,,,,,,,sheep/one/1sheep_1.bmp,2377,,,,,,,,,,trialproc,1,1,-999999,1,119159,1,437,119596,sheepsmall,sheep/one/1sheep_1.bmp,1,,,,,4,1,2,3.wav,sheep.wav,,,,,,,,,,301
numbMap_ERP_TRNshortSMALL,2,2,0,"<?xml version=""1.0""?><Clock><Description>E-Prime SNTP Realtime Clock</Description><Version>2.0.8.50</Version><StartTime><DateUtc>2014-03-30T16:54:02Z</DateUtc><Timestamp>1300098392</Timestamp><Native>3605186893.2112706560</Native><Native1>3605186893</Native1><Native2>2112706560</Native2></StartTime><NTPServer><IP>10.0.0.42</IP><Port>123</Port></NTPServer></Clock>",1,59.941,1,left,,-1595484984,1,3/30/2014,11:54:02,4:54:02 PM,male,1,2,1,1,,,,sheep,condlist,3,,,,,,,,,,,,,,,,,,,,,,,SHSML,sheepconds,1,3,3,,,,,,1,0,4,0,35,125499,,0,0,smlg,33,small,4,,,,,,,,,,sheep/three/3sheep_2.bmp,2185,,,,,,,,,,trialproc,0,4,-999999,1,126500,1,5305,131805,sheepsmall,,,,,sheep/three/3sheep_2.bmp,2,6,1,3,1.wav,sheep.wav,,,,,,,,,,103
numbMap_ERP_TRNshortSMALL,2,2,0,"<?xml version=""1.0""?><Clock><Description>E-Prime SNTP Realtime Clock</Description><Version>2.0.8.50</Version><StartTime><DateUtc>2014-03-30T16:54:02Z</DateUtc><Timestamp>1300098392</Timestamp><Native>3605186893.2112706560</Native><Native1>3605186893</Native1><Native2>2112706560</Native2></StartTime><NTPServer><IP>10.0.0.42</IP><Port>123</Port></NTPServer></Clock>",1,59.941,1,left,,-1595484984,1,3/30/2014,11:54:02,4:54:02 PM,male,1,2,1,1,,,,sheep,condlist,4,,,,,,,,,,,,,,,,,,,,,,,SHSML,sheepconds,1,4,4,,,,,,1,0,1,0,34,137477,,0,0,smsm,32,small,1,,,,,,,,,,sheep/two/2sheep_1.bmp,2371,,,,,,,,,,trialproc,1,1,-999999,1,138478,1,771,139249,sheepsmall,,,sheep/two/2sheep_1.bmp,1,,,5,1,4,3.wav,sheep.wav,,,,,,,,,,302
numbMap_ERP_TRNshortSMALL,2,2,0,"<?xml version=""1.0""?><Clock><Description>E-Prime SNTP Realtime Clock</Description><Version>2.0.8.50</Version><StartTime><DateUtc>2014-03-30T16:54:02Z</DateUtc><Timestamp>1300098392</Timestamp><Native>3605186893.2112706560</Native><Native1>3605186893</Native1><Native2>2112706560</Native2></StartTime><NTPServer><IP>10.0.0.42</IP><Port>123</Port></NTPServer></Clock>",1,59.941,1,left,,-1595484984,1,3/30/2014,11:54:02,4:54:02 PM,male,1,2,1,1,,,,sheep,condlist,5,,,,,,,,,,,,,,,,,,,,,,,SHSML,sheepconds,1,5,5,,,,,,1,0,1,0,34,145118,,0,0,smmed,28,small,1,,,,,,,,,,sheep/one/1sheep_2.bmp,2312,,,,,,,,,,trialproc,1,1,-999999,1,146119,1,4040,150159,sheepsmall,sheep/one/1sheep_2.bmp,2,,,,,1,1,5,2.wav,sheep.wav,,,,,,,,,,201
numbMap_ERP_TRNshortSMALL,2,2,0,"<?xml version=""1.0""?><Clock><Description>E-Prime SNTP Realtime Clock</Description><Version>2.0.8.50</Version><StartTime><DateUtc>2014-03-30T16:54:02Z</DateUtc><Timestamp>1300098392</Timestamp><Native>3605186893.2112706560</Native><Native1>3605186893</Native1><Native2>2112706560</Native2></StartTime><NTPServer><IP>10.0.0.42</IP><Port>123</Port></NTPServer></Clock>",1,59.941,1,left,,-1595484984,1,3/30/2014,11:54:02,4:54:02 PM,male,1,2,1,1,,,,sheep,condlist,6,,,,,,,,,,,,,,,,,,,,,,,SHSML,sheepconds,1,6,6,,,,,,1,0,4,0,19,155963,,0,0,smmed,29,small,4,,,,,,,,,,sheep/two/2sheep_2.bmp,2126,,,,,,,,,,trialproc,0,4,-999999,1,156964,1,1942,158906,sheepsmall,,,sheep/two/2sheep_2.bmp,2,,,2,1,6,1.wav,sheep.wav,,,,,,,,,,102
numbMap_ERP_TRNshortSMALL,2,2,0,"<?xml version=""1.0""?><Clock><Description>E-Prime SNTP Realtime Clock</Description><Version>2.0.8.50</Version><StartTime><DateUtc>2014-03-30T16:54:02Z</DateUtc><Timestamp>1300098392</Timestamp><Native>3605186893.2112706560</Native><Native1>3605186893</Native1><Native2>2112706560</Native2></StartTime><NTPServer><IP>10.0.0.42</IP><Port>123</Port></NTPServer></Clock>",1,59.941,1,left,,-1595484984,1,3/30/2014,11:54:02,4:54:02 PM,male,1,2,1,1,,,,sheep,condlist,7,,,,,,,,,,,,,,,,,,,,,,,SHSML,sheepconds,1,7,7,,,,,,1,0,4,0,35,164504,,0,0,smmed,29,small,4,,,,,,,,,,sheep/two/2sheep_3.bmp,2038,,,,,,,,,,trialproc,1,4,-999999,1,165505,4,5864,171369,sheepsmall,,,sheep/two/2sheep_3.bmp,3,,,2,2,7,1.wav,sheep.wav,,,,,,,,,,102
numbMap_ERP_TRNshortSMALL,2,2,0,"<?xml version=""1.0""?><Clock><Description>E-Prime SNTP Realtime Clock</Description><Version>2.0.8.50</Version><StartTime><DateUtc>2014-03-30T16:54:02Z</DateUtc><Timestamp>1300098392</Timestamp><Native>3605186893.2112706560</Native><Native1>3605186893</Native1><Native2>2112706560</Native2></StartTime><NTPServer><IP>10.0.0.42</IP><Port>123</Port></NTPServer></Clock>",1,59.941,1,left,,-1595484984,1,3/30/2014,11:54:02,4:54:02 PM,male,1,2,1,1,,,,sheep,condlist,8,,,,,,,,,,,,,,,,,,,,,,,SHSML,sheepconds,1,8,8,,,,,,1,0,4,0,34,176899,,0,0,smlg,33,small,4,,,,,,,,,,sheep/three/3sheep_3.bmp,2110,,,,,,,,,,trialproc,0,4,-999999,1,177900,1,2485,180385,sheepsmall,,,,,sheep/three/3sheep_3.bmp,3,6,2,8,1.wav,sheep.wav,,,,,,,,,,103
numbMap_ERP_TRNshortSMALL,2,2,0,"<?xml version=""1.0""?><Clock><Description>E-Prime SNTP Realtime Clock</Description><Version>2.0.8.50</Version><StartTime><DateUtc>2014-03-30T16:54:02Z</DateUtc><Timestamp>1300098392</Timestamp><Native>3605186893.2112706560</Native><Native1>3605186893</Native1><Native2>2112706560</Native2></StartTime><NTPServer><IP>10.0.0.42</IP><Port>123</Port></NTPServer></Clock>",1,59.941,1,left,,-1595484984,1,3/30/2014,11:54:02,4:54:02 PM,male,1,2,1,1,,,,sheep,condlist,9,,,,,,,,,,,,,,,,,,,,,,,SHSML,sheepconds,1,9,9,,,,,,1,0,1,0,34,185975,,0,0,smmed,28,small,1,,,,,,,,,,sheep/one/1sheep_3.bmp,2144,,,,,,,,,,trialproc,1,1,-999999,1,186976,1,562,187538,sheepsmall,sheep/one/1sheep_3.bmp,3,,,,,1,2,9,2.wav,sheep.wav,,,,,,,,,,201
numbMap_ERP_TRNshortSMALL,2,2,0,"<?xml version=""1.0""?><Clock><Description>E-Prime SNTP Realtime Clock</Description><Version>2.0.8.50</Version><StartTime><DateUtc>2014-03-30T16:54:02Z</DateUtc><Timestamp>1300098392</Timestamp><Native>3605186893.2112706560</Native><Native1>3605186893</Native1><Native2>2112706560</Native2></StartTime><NTPServer><IP>10.0.0.42</IP><Port>123</Port></NTPServer></Clock>",1,59.941,1,left,,-1595484984,1,3/30/2014,11:54:02,4:54:02 PM,male,1,2,1,1,,,,sheep,condlist,10,,,,,,,,,,,,,,,,,,,,,,,SHSML,sheepconds,1,10,10,,,,,,1,0,4,0,35,193166,,0,0,smsm,30,small,4,,,,,,,,,,sheep/three/3sheep_4.bmp,2045,,,,,,,,,,trialproc,0,4,-999999,1,194167,1,3140,197307,sheepsmall,,,,,sheep/three/3sheep_4.bmp,4,3,2,10,2.wav,sheep.wav,,,,,,,,,,203
numbMap_ERP_TRNshortSMALL,2,2,0,"<?xml version=""1.0""?><Clock><Description>E-Prime SNTP Realtime Clock</Description><Version>2.0.8.50</Version><StartTime><DateUtc>2014-03-30T16:54:02Z</DateUtc><Timestamp>1300098392</Timestamp><Native>3605186893.2112706560</Native><Native1>3605186893</Native1><Native2>2112706560</Native2></StartTime><NTPServer><IP>10.0.0.42</IP><Port>123</Port></NTPServer></Clock>",1,59.941,1,left,,-1595484984,1,3/30/2014,11:54:02,4:54:02 PM,male,1,2,1,1,,,,sheep,condlist,11,,,,,,,,,,,,,,,,,,,,,,,SHSML,sheepconds,1,11,11,,,,,,1,0,1,0,35,202842,,0,0,smlg,31,small,1,,,,,,,,,,sheep/one/1sheep_4.bmp,2276,,,,,,,,,,trialproc,1,1,-999999,1,203843,1,3795,207638,sheepsmall,sheep/one/1sheep_4.bmp,4,,,,,4,2,11,3.wav,sheep.wav,,,,,,,,,,301
numbMap_ERP_TRNshortSMALL,2,2,0,"<?xml version=""1.0""?><Clock><Description>E-Prime SNTP Realtime Clock</Description><Version>2.0.8.50</Version><StartTime><DateUtc>2014-03-30T16:54:02Z</DateUtc><Timestamp>1300098392</Timestamp><Native>3605186893.2112706560</Native><Native1>3605186893</Native1><Native2>2112706560</Native2></StartTime><NTPServer><IP>10.0.0.42</IP><Port>123</Port></NTPServer></Clock>",1,59.941,1,left,,-1595484984,1,3/30/2014,11:54:02,4:54:02 PM,male,1,2,1,1,,,,sheep,condlist,12,,,,,,,,,,,,,,,,,,,,,,,SHSML,sheepconds,1,12,12,,,,,,1,0,1,0,34,213419,,0,0,smsm,32,small,1,,,,,,,,,,sheep/two/2sheep_4.bmp,2340,,,,,,,,,,trialproc,1,1,-999999,1,214420,1,3228,217648,sheepsmall,,,sheep/two/2sheep_4.bmp,4,,,5,2,12,3.wav,sheep.wav,,,,,,,,,,302
numbMap_ERP_TRNshortSMALL,2,2,0,"<?xml version=""1.0""?><Clock><Description>E-Prime SNTP Realtime Clock</Description><Version>2.0.8.50</Version><StartTime><DateUtc>2014-03-30T16:54:02Z</DateUtc><Timestamp>1300098392</Timestamp><Native>3605186893.2112706560</Native><Native1>3605186893</Native1><Native2>2112706560</Native2></StartTime><NTPServer><IP>10.0.0.42</IP><Port>123</Port></NTPServer></Clock>",1,59.941,1,left,,-1595484984,1,3/30/2014,11:54:02,4:54:02 PM,male,1,2,1,1,,,,sheep,condlist,13,,,,,,,,,,,,,,,,,,,,,,,SHSML,sheepconds,1,13,13,,,,,,1,0,4,0,34,223462,,0,0,smmed,29,small,4,,,,,,,,,,sheep/two/2sheep_5.bmp,2137,,,,,,,,,,trialproc,0,4,-999999,1,224463,1,2287,226750,sheepsmall,,,sheep/two/2sheep_5.bmp,5,,,2,3,13,1.wav,sheep.wav,,,,,,,,,,102
numbMap_ERP_TRNshortSMALL,2,2,0,"<?xml version=""1.0""?><Clock><Description>E-Prime SNTP Realtime Clock</Description><Version>2.0.8.50</Version><StartTime><DateUtc>2014-03-30T16:54:02Z</DateUtc><Timestamp>1300098392</Timestamp><Native>3605186893.2112706560</Native><Native1>3605186893</Native1><Native2>2112706560</Native2></StartTime><NTPServer><IP>10.0.0.42</IP><Port>123</Port></NTPServer></Clock>",1,59.941,1,left,,-1595484984,1,3/30/2014,11:54:02,4:54:02 PM,male,1,2,1,1,,,,sheep,condlist,14,,,,,,,,,,,,,,,,,,,,,,,SHSML,sheepconds,1,14,14,,,,,,1,1,1,-999999,34,232354,1,642,232996,smlg,31,small,1,,,,,,,,,,sheep/one/1sheep_5.bmp,2137,,,,,,,,,,trialproc,0,4,-999999,1,224463,1,2287,226750,sheepsmall,sheep/one/1sheep_5.bmp,5,,,,,4,3,14,3.wav,sheep.wav,,,,,,,,,,301
numbMap_ERP_TRNshortSMALL,2,2,0,"<?xml version=""1.0""?><Clock><Description>E-Prime SNTP Realtime Clock</Description><Version>2.0.8.50</Version><StartTime><DateUtc>2014-03-30T16:54:02Z</DateUtc><Timestamp>1300098392</Timestamp><Native>3605186893.2112706560</Native><Native1>3605186893</Native1><Native2>2112706560</Native2></StartTime><NTPServer><IP>10.0.0.42</IP><Port>123</Port></NTPServer></Clock>",1,59.941,1,left,,-1595484984,1,3/30/2014,11:54:02,4:54:02 PM,male,1,2,1,1,,,,sheep,condlist,15,,,,,,,,,,,,,,,,,,,,,,,SHSML,sheepconds,1,15,15,,,,,,1,0,4,-999999,34,238627,1,799,239426,smsm,30,small,4,,,,,,,,,,sheep/three/3sheep_5.bmp,2261,,,,,,,,,,trialproc,0,4,-999999,1,224463,1,2287,226750,sheepsmall,,,,,sheep/three/3sheep_5.bmp,5,3,3,15,2.wav,sheep.wav,,,,,,,,,,203
numbMap_ERP_TRNshortSMALL,2,2,0,"<?xml version=""1.0""?><Clock><Description>E-Prime SNTP Realtime Clock</Description><Version>2.0.8.50</Version><StartTime><DateUtc>2014-03-30T16:54:02Z</DateUtc><Timestamp>1300098392</Timestamp><Native>3605186893.2112706560</Native><Native1>3605186893</Native1><Native2>2112706560</Native2></StartTime><NTPServer><IP>10.0.0.42</IP><Port>123</Port></NTPServer></Clock>",1,59.941,1,left,,-1595484984,1,3/30/2014,11:54:02,4:54:02 PM,male,1,2,1,1,,,,sheep,condlist,16,,,,,,,,,,,,,,,,,,,,,,,SHSML,sheepconds,1,16,16,,,,,,1,0,1,0,17,245133,,0,0,smmed,28,small,1,,,,,,,,,,sheep/one/1sheep_1.bmp,2453,,,,,,,,,,trialproc,1,1,-999999,1,246134,1,398,246532,sheepsmall,sheep/one/1sheep_1.bmp,1,,,,,1,3,16,2.wav,sheep.wav,,,,,,,,,,201
numbMap_ERP_TRNshortSMALL,2,2,0,"<?xml version=""1.0""?><Clock><Description>E-Prime SNTP Realtime Clock</Description><Version>2.0.8.50</Version><StartTime><DateUtc>2014-03-30T16:54:02Z</DateUtc><Timestamp>1300098392</Timestamp><Native>3605186893.2112706560</Native><Native1>3605186893</Native1><Native2>2112706560</Native2></StartTime><NTPServer><IP>10.0.0.42</IP><Port>123</Port></NTPServer></Clock>",1,59.941,1,left,,-1595484984,1,3/30/2014,11:54:02,4:54:02 PM,male,1,2,1,1,,,,sheep,condlist,17,,,,,,,,,,,,,,,,,,,,,,,SHSML,sheepconds,1,17,17,,,,,,1,0,1,0,17,252424,,0,0,smsm,32,small,1,,,,,,,,,,sheep/two/2sheep_1.bmp,2046,,,,,,,,,,trialproc,1,1,-999999,1,253425,1,3764,257189,sheepsmall,,,sheep/two/2sheep_1.bmp,1,,,5,3,17,3.wav,sheep.wav,,,,,,,,,,302
numbMap_ERP_TRNshortSMALL,2,2,0,"<?xml version=""1.0""?><Clock><Description>E-Prime SNTP Realtime Clock</Description><Version>2.0.8.50</Version><StartTime><DateUtc>2014-03-30T16:54:02Z</DateUtc><Timestamp>1300098392</Timestamp><Native>3605186893.2112706560</Native><Native1>3605186893</Native1><Native2>2112706560</Native2></StartTime><NTPServer><IP>10.0.0.42</IP><Port>123</Port></NTPServer></Clock>",1,59.941,1,left,,-1595484984,1,3/30/2014,11:54:02,4:54:02 PM,male,1,2,1,1,,,,sheep,condlist,18,,,,,,,,,,,,,,,,,,,,,,,SHSML,sheepconds,1,18,18,,,,,,1,0,4,0,18,262718,,0,0,smlg,33,small,4,,,,,,,,,,sheep/three/3sheep_1.bmp,2238,,,,,,,,,,trialproc,0,4,-999999,1,263719,1,3526,267245,sheepsmall,,,,,sheep/three/3sheep_1.bmp,1,6,3,18,1.wav,sheep.wav,,,,,,,,,,103
numbMap_ERP_TRNshortSMALL,2,2,0,"<?xml version=""1.0""?><Clock><Description>E-Prime SNTP Realtime Clock</Description><Version>2.0.8.50</Version><StartTime><DateUtc>2014-03-30T16:54:02Z</DateUtc><Timestamp>1300098392</Timestamp><Native>3605186893.2112706560</Native><Native1>3605186893</Native1><Native2>2112706560</Native2></StartTime><NTPServer><IP>10.0.0.42</IP><Port>123</Port></NTPServer></Clock>",1,59.941,1,left,,-1595484984,1,3/30/2014,11:54:02,4:54:02 PM,male,1,2,1,1,,,,sheep,condlist,19,1,1,1,,,,,,,,,,,,,,,,,,,,breakproc,breaklist1,,,,,,,,,,,,,,,,,,,,,,,,,,,,,,,,,,,,,,,,,,,,,,,,,,,,,,,,,,,,,,,,,,,,,,,,
numbMap_ERP_TRNshortSMALL,2,2,0,"<?xml version=""1.0""?><Clock><Description>E-Prime SNTP Realtime Clock</Description><Version>2.0.8.50</Version><StartTime><DateUtc>2014-03-30T16:54:02Z</DateUtc><Timestamp>1300098392</Timestamp><Native>3605186893.2112706560</Native><Native1>3605186893</Native1><Native2>2112706560</Native2></StartTime><NTPServer><IP>10.0.0.42</IP><Port>123</Port></NTPServer></Clock>",1,59.941,1,left,,-1595484984,1,3/30/2014,11:54:02,4:54:02 PM,male,2,3,1,2,,,,fish,condlist,1,,,,,1,1,1,,,,,,,,,,,,,,,,FSML,fishconds,,,,,,,,,1,0,4,0,34,290111,,0,0,smmed,29,small,4,,,fish/two/2fish_1.bmp,1,,,2,1,1,fish/two/2fish_1.bmp,2229,,,,,,,,,,trialproc,0,4,-999999,1,291112,1,2291,293403,fishsmall,,,,,,,,,,1.wav,fish.wav,,,,,,,,,,102
numbMap_ERP_TRNshortSMALL,2,2,0,"<?xml version=""1.0""?><Clock><Description>E-Prime SNTP Realtime Clock</Description><Version>2.0.8.50</Version><StartTime><DateUtc>2014-03-30T16:54:02Z</DateUtc><Timestamp>1300098392</Timestamp><Native>3605186893.2112706560</Native><Native1>3605186893</Native1><Native2>2112706560</Native2></StartTime><NTPServer><IP>10.0.0.42</IP><Port>123</Port></NTPServer></Clock>",1,59.941,1,left,,-1595484984,1,3/30/2014,11:54:02,4:54:02 PM,male,2,3,1,2,,,,fish,condlist,2,,,,,1,2,2,,,,,,,,,,,,,,,,FSML,fishconds,,,,,,,,,1,0,1,0,34,299120,,0,0,smmed,28,small,1,fish/one/1fish_1.bmp,1,,,,,1,1,2,fish/one/1fish_1.bmp,2390,,,,,,,,,,trialproc,1,1,-999999,1,300121,1,2279,302400,fishsmall,,,,,,,,,,2.wav,fish.wav,,,,,,,,,,201
numbMap_ERP_TRNshortSMALL,2,2,0,"<?xml version=""1.0""?><Clock><Description>E-Prime SNTP Realtime Clock</Description><Version>2.0.8.50</Version><StartTime><DateUtc>2014-03-30T16:54:02Z</DateUtc><Timestamp>1300098392</Timestamp><Native>3605186893.2112706560</Native><Native1>3605186893</Native1><Native2>2112706560</Native2></StartTime><NTPServer><IP>10.0.0.42</IP><Port>123</Port></NTPServer></Clock>",1,59.941,1,left,,-1595484984,1,3/30/2014,11:54:02,4:54:02 PM,male,2,3,1,2,,,,fish,condlist,3,,,,,1,3,3,,,,,,,,,,,,,,,,FSML,fishconds,,,,,,,,,1,1,1,-999999,35,308263,1,473,308736,smlg,31,small,1,fish/one/1fish_2.bmp,2,,,,,4,1,3,fish/one/1fish_2.bmp,2493,,,,,,,,,,trialproc,1,1,-999999,1,300121,1,2279,302400,fishsmall,,,,,,,,,,3.wav,fish.wav,,,,,,,,,,301
numbMap_ERP_TRNshortSMALL,2,2,0,"<?xml version=""1.0""?><Clock><Description>E-Prime SNTP Realtime Clock</Description><Version>2.0.8.50</Version><StartTime><DateUtc>2014-03-30T16:54:02Z</DateUtc><Timestamp>1300098392</Timestamp><Native>3605186893.2112706560</Native><Native1>3605186893</Native1><Native2>2112706560</Native2></StartTime><NTPServer><IP>10.0.0.42</IP><Port>123</Port></NTPServer></Clock>",1,59.941,1,left,,-1595484984,1,3/30/2014,11:54:02,4:54:02 PM,male,2,3,1,2,,,,fish,condlist,4,,,,,1,4,4,,,,,,,,,,,,,,,,FSML,fishconds,,,,,,,,,1,0,4,0,34,314719,,0,0,smsm,30,small,4,,,,,fish/three/3fish_1.bmp,1,3,1,4,fish/three/3fish_1.bmp,2484,,,,,,,,,,trialproc,0,4,-999999,1,315720,1,3962,319682,fishsmall,,,,,,,,,,2.wav,fish.wav,,,,,,,,,,203
numbMap_ERP_TRNshortSMALL,2,2,0,"<?xml version=""1.0""?><Clock><Description>E-Prime SNTP Realtime Clock</Description><Version>2.0.8.50</Version><StartTime><DateUtc>2014-03-30T16:54:02Z</DateUtc><Timestamp>1300098392</Timestamp><Native>3605186893.2112706560</Native><Native1>3605186893</Native1><Native2>2112706560</Native2></StartTime><NTPServer><IP>10.0.0.42</IP><Port>123</Port></NTPServer></Clock>",1,59.941,1,left,,-1595484984,1,3/30/2014,11:54:02,4:54:02 PM,male,2,3,1,2,,,,fish,condlist,5,,,,,1,5,5,,,,,,,,,,,,,,,,FSML,fishconds,,,,,,,,,1,0,4,0,34,325646,,0,0,smlg,33,small,4,,,,,fish/three/3fish_2.bmp,2,6,1,5,fish/three/3fish_2.bmp,2279,,,,,,,,,,trialproc,0,4,-999999,1,326647,1,369,327016,fishsmall,,,,,,,,,,1.wav,fish.wav,,,,,,,,,,103
numbMap_ERP_TRNshortSMALL,2,2,0,"<?xml version=""1.0""?><Clock><Description>E-Prime SNTP Realtime Clock</Description><Version>2.0.8.50</Version><StartTime><DateUtc>2014-03-30T16:54:02Z</DateUtc><Timestamp>1300098392</Timestamp><Native>3605186893.2112706560</Native><Native1>3605186893</Native1><Native2>2112706560</Native2></StartTime><NTPServer><IP>10.0.0.42</IP><Port>123</Port></NTPServer></Clock>",1,59.941,1,left,,-1595484984,1,3/30/2014,11:54:02,4:54:02 PM,male,2,3,1,2,,,,fish,condlist,6,,,,,1,6,6,,,,,,,,,,,,,,,,FSML,fishconds,,,,,,,,,1,0,1,0,35,332787,,0,0,smsm,32,small,1,,,fish/two/2fish_2.bmp,2,,,5,1,6,fish/two/2fish_2.bmp,2125,,,,,,,,,,trialproc,1,1,-999999,1,333788,1,4328,338116,fishsmall,,,,,,,,,,3.wav,fish.wav,,,,,,,,,,302
numbMap_ERP_TRNshortSMALL,2,2,0,"<?xml version=""1.0""?><Clock><Description>E-Prime SNTP Realtime Clock</Description><Version>2.0.8.50</Version><StartTime><DateUtc>2014-03-30T16:54:02Z</DateUtc><Timestamp>1300098392</Timestamp><Native>3605186893.2112706560</Native><Native1>3605186893</Native1><Native2>2112706560</Native2></StartTime><NTPServer><IP>10.0.0.42</IP><Port>123</Port></NTPServer></Clock>",1,59.941,1,left,,-1595484984,1,3/30/2014,11:54:02,4:54:02 PM,male,2,3,1,2,,,,fish,condlist,7,,,,,1,7,7,,,,,,,,,,,,,,,,FSML,fishconds,,,,,,,,,1,0,4,0,34,343714,,0,0,smmed,29,small,4,,,fish/two/2fish_3.bmp,3,,,2,2,7,fish/two/2fish_3.bmp,2352,,,,,,,,,,trialproc,0,4,-999999,1,344715,1,1790,346505,fishsmall,,,,,,,,,,1.wav,fish.wav,,,,,,,,,,102
numbMap_ERP_TRNshortSMALL,2,2,0,"<?xml version=""1.0""?><Clock><Description>E-Prime SNTP Realtime Clock</Description><Version>2.0.8.50</Version><StartTime><DateUtc>2014-03-30T16:54:02Z</DateUtc><Timestamp>1300098392</Timestamp><Native>3605186893.2112706560</Native><Native1>3605186893</Native1><Native2>2112706560</Native2></StartTime><NTPServer><IP>10.0.0.42</IP><Port>123</Port></NTPServer></Clock>",1,59.941,1,left,,-1595484984,1,3/30/2014,11:54:02,4:54:02 PM,male,2,3,1,2,,,,fish,condlist,8,,,,,1,8,8,,,,,,,,,,,,,,,,FSML,fishconds,,,,,,,,,1,0,4,-999999,34,352339,1,519,352858,smlg,33,small,4,,,,,fish/three/3fish_3.bmp,3,6,2,8,fish/three/3fish_3.bmp,2066,,,,,,,,,,trialproc,0,4,-999999,1,344715,1,1790,346505,fishsmall,,,,,,,,,,1.wav,fish.wav,,,,,,,,,,103
numbMap_ERP_TRNshortSMALL,2,2,0,"<?xml version=""1.0""?><Clock><Description>E-Prime SNTP Realtime Clock</Description><Version>2.0.8.50</Version><StartTime><DateUtc>2014-03-30T16:54:02Z</DateUtc><Timestamp>1300098392</Timestamp><Native>3605186893.2112706560</Native><Native1>3605186893</Native1><Native2>2112706560</Native2></StartTime><NTPServer><IP>10.0.0.42</IP><Port>123</Port></NTPServer></Clock>",1,59.941,1,left,,-1595484984,1,3/30/2014,11:54:02,4:54:02 PM,male,2,3,1,2,,,,fish,condlist,9,,,,,1,9,9,,,,,,,,,,,,,,,,FSML,fishconds,,,,,,,,,1,0,4,-999999,34,358395,1,446,358841,smsm,30,small,4,,,,,fish/three/3fish_4.bmp,4,3,2,9,fish/three/3fish_4.bmp,2482,,,,,,,,,,trialproc,0,4,-999999,1,344715,1,1790,346505,fishsmall,,,,,,,,,,2.wav,fish.wav,,,,,,,,,,203
numbMap_ERP_TRNshortSMALL,2,2,0,"<?xml version=""1.0""?><Clock><Description>E-Prime SNTP Realtime Clock</Description><Version>2.0.8.50</Version><StartTime><DateUtc>2014-03-30T16:54:02Z</DateUtc><Timestamp>1300098392</Timestamp><Native>3605186893.2112706560</Native><Native1>3605186893</Native1><Native2>2112706560</Native2></StartTime><NTPServer><IP>10.0.0.42</IP><Port>123</Port></NTPServer></Clock>",1,59.941,1,left,,-1595484984,1,3/30/2014,11:54:02,4:54:02 PM,male,2,3,1,2,,,,fish,condlist,10,,,,,1,10,10,,,,,,,,,,,,,,,,FSML,fishconds,,,,,,,,,1,0,1,0,34,364818,,0,0,smsm,32,small,1,,,fish/two/2fish_4.bmp,4,,,5,2,10,fish/two/2fish_4.bmp,2458,,,,,,,,,,trialproc,1,1,-999999,1,365819,1,1528,367347,fishsmall,,,,,,,,,,3.wav,fish.wav,,,,,,,,,,302
numbMap_ERP_TRNshortSMALL,2,2,0,"<?xml version=""1.0""?><Clock><Description>E-Prime SNTP Realtime Clock</Description><Version>2.0.8.50</Version><StartTime><DateUtc>2014-03-30T16:54:02Z</DateUtc><Timestamp>1300098392</Timestamp><Native>3605186893.2112706560</Native><Native1>3605186893</Native1><Native2>2112706560</Native2></StartTime><NTPServer><IP>10.0.0.42</IP><Port>123</Port></NTPServer></Clock>",1,59.941,1,left,,-1595484984,1,3/30/2014,11:54:02,4:54:02 PM,male,2,3,1,2,,,,fish,condlist,11,,,,,1,11,11,,,,,,,,,,,,,,,,FSML,fishconds,,,,,,,,,1,1,1,-999999,35,373277,1,162,373439,smlg,31,small,1,fish/one/1fish_3.bmp,3,,,,,4,2,11,fish/one/1fish_3.bmp,2082,,,,,,,,,,trialproc,1,1,-999999,1,365819,1,1528,367347,fishsmall,,,,,,,,,,3.wav,fish.wav,,,,,,,,,,301
numbMap_ERP_TRNshortSMALL,2,2,0,"<?xml version=""1.0""?><Clock><Description>E-Prime SNTP Realtime Clock</Description><Version>2.0.8.50</Version><StartTime><DateUtc>2014-03-30T16:54:02Z</DateUtc><Timestamp>1300098392</Timestamp><Native>3605186893.2112706560</Native><Native1>3605186893</Native1><Native2>2112706560</Native2></StartTime><NTPServer><IP>10.0.0.42</IP><Port>123</Port></NTPServer></Clock>",1,59.941,1,left,,-1595484984,1,3/30/2014,11:54:02,4:54:02 PM,male,2,3,1,2,,,,fish,condlist,12,,,,,1,12,12,,,,,,,,,,,,,,,,FSML,fishconds,,,,,,,,,1,0,1,0,35,378966,,0,0,smmed,28,small,1,fish/one/1fish_4.bmp,4,,,,,1,2,12,fish/one/1fish_4.bmp,2331,,,,,,,,,,trialproc,1,1,-999999,1,379967,1,2059,382026,fishsmall,,,,,,,,,,2.wav,fish.wav,,,,,,,,,,201
numbMap_ERP_TRNshortSMALL,2,2,0,"<?xml version=""1.0""?><Clock><Description>E-Prime SNTP Realtime Clock</Description><Version>2.0.8.50</Version><StartTime><DateUtc>2014-03-30T16:54:02Z</DateUtc><Timestamp>1300098392</Timestamp><Native>3605186893.2112706560</Native><Native1>3605186893</Native1><Native2>2112706560</Native2></StartTime><NTPServer><IP>10.0.0.42</IP><Port>123</Port></NTPServer></Clock>",1,59.941,1,left,,-1595484984,1,3/30/2014,11:54:02,4:54:02 PM,male,2,3,1,2,,,,fish,condlist,13,,,,,1,13,13,,,,,,,,,,,,,,,,FSML,fishconds,,,,,,,,,1,0,4,0,35,387875,,0,0,smsm,30,small,4,,,,,fish/three/3fish_5.bmp,5,3,3,13,fish/three/3fish_5.bmp,2311,,,,,,,,,,trialproc,0,4,-999999,1,388876,1,2,388878,fishsmall,,,,,,,,,,2.wav,fish.wav,,,,,,,,,,203
numbMap_ERP_TRNshortSMALL,2,2,0,"<?xml version=""1.0""?><Clock><Description>E-Prime SNTP Realtime Clock</Description><Version>2.0.8.50</Version><StartTime><DateUtc>2014-03-30T16:54:02Z</DateUtc><Timestamp>1300098392</Timestamp><Native>3605186893.2112706560</Native><Native1>3605186893</Native1><Native2>2112706560</Native2></StartTime><NTPServer><IP>10.0.0.42</IP><Port>123</Port></NTPServer></Clock>",1,59.941,1,left,,-1595484984,1,3/30/2014,11:54:02,4:54:02 PM,male,2,3,1,2,,,,fish,condlist,14,,,,,1,14,14,,,,,,,,,,,,,,,,FSML,fishconds,,,,,,,,,1,0,4,-999999,34,394698,1,632,395330,smmed,29,small,4,,,fish/two/2fish_5.bmp,5,,,2,3,14,fish/two/2fish_5.bmp,2199,,,,,,,,,,trialproc,0,4,-999999,1,388876,1,2,388878,fishsmall,,,,,,,,,,1.wav,fish.wav,,,,,,,,,,102
numbMap_ERP_TRNshortSMALL,2,2,0,"<?xml version=""1.0""?><Clock><Description>E-Prime SNTP Realtime Clock</Description><Version>2.0.8.50</Version><StartTime><DateUtc>2014-03-30T16:54:02Z</DateUtc><Timestamp>1300098392</Timestamp><Native>3605186893.2112706560</Native><Native1>3605186893</Native1><Native2>2112706560</Native2></StartTime><NTPServer><IP>10.0.0.42</IP><Port>123</Port></NTPServer></Clock>",1,59.941,1,left,,-1595484984,1,3/30/2014,11:54:02,4:54:02 PM,male,2,3,1,2,,,,fish,condlist,15,,,,,1,15,15,,,,,,,,,,,,,,,,FSML,fishconds,,,,,,,,,1,0,1,-999999,17,401004,4,232,401236,smmed,28,small,1,fish/one/1fish_5.bmp,5,,,,,1,3,15,fish/one/1fish_5.bmp,2296,,,,,,,,,,trialproc,0,4,-999999,1,388876,1,2,388878,fishsmall,,,,,,,,,,2.wav,fish.wav,,,,,,,,,,201
numbMap_ERP_TRNshortSMALL,2,2,0,"<?xml version=""1.0""?><Clock><Description>E-Prime SNTP Realtime Clock</Description><Version>2.0.8.50</Version><StartTime><DateUtc>2014-03-30T16:54:02Z</DateUtc><Timestamp>1300098392</Timestamp><Native>3605186893.2112706560</Native><Native1>3605186893</Native1><Native2>2112706560</Native2></StartTime><NTPServer><IP>10.0.0.42</IP><Port>123</Port></NTPServer></Clock>",1,59.941,1,left,,-1595484984,1,3/30/2014,11:54:02,4:54:02 PM,male,2,3,1,2,,,,fish,condlist,16,,,,,1,16,16,,,,,,,,,,,,,,,,FSML,fishconds,,,,,,,,,1,0,1,-999999,18,406977,4,458,407435,smsm,32,small,1,,,fish/two/2fish_1.bmp,1,,,5,3,16,fish/two/2fish_1.bmp,2361,,,,,,,,,,trialproc,0,4,-999999,1,388876,1,2,388878,fishsmall,,,,,,,,,,3.wav,fish.wav,,,,,,,,,,302
numbMap_ERP_TRNshortSMALL,2,2,0,"<?xml version=""1.0""?><Clock><Description>E-Prime SNTP Realtime Clock</Description><Version>2.0.8.50</Version><StartTime><DateUtc>2014-03-30T16:54:02Z</DateUtc><Timestamp>1300098392</Timestamp><Native>3605186893.2112706560</Native><Native1>3605186893</Native1><Native2>2112706560</Native2></StartTime><NTPServer><IP>10.0.0.42</IP><Port>123</Port></NTPServer></Clock>",1,59.941,1,left,,-1595484984,1,3/30/2014,11:54:02,4:54:02 PM,male,2,3,1,2,,,,fish,condlist,17,,,,,1,17,17,,,,,,,,,,,,,,,,FSML,fishconds,,,,,,,,,1,0,4,0,17,413266,,0,0,smlg,33,small,4,,,,,fish/three/3fish_1.bmp,1,6,3,17,fish/three/3fish_1.bmp,2228,,,,,,,,,,trialproc,0,4,-999999,1,414267,1,5363,419630,fishsmall,,,,,,,,,,1.wav,fish.wav,,,,,,,,,,103
numbMap_ERP_TRNshortSMALL,2,2,0,"<?xml version=""1.0""?><Clock><Description>E-Prime SNTP Realtime Clock</Description><Version>2.0.8.50</Version><StartTime><DateUtc>2014-03-30T16:54:02Z</DateUtc><Timestamp>1300098392</Timestamp><Native>3605186893.2112706560</Native><Native1>3605186893</Native1><Native2>2112706560</Native2></StartTime><NTPServer><IP>10.0.0.42</IP><Port>123</Port></NTPServer></Clock>",1,59.941,1,left,,-1595484984,1,3/30/2014,11:54:02,4:54:02 PM,male,2,3,1,2,,,,fish,condlist,18,,,,,1,18,18,,,,,,,,,,,,,,,,FSML,fishconds,,,,,,,,,1,0,1,0,17,425328,,0,0,smlg,31,small,1,fish/one/1fish_1.bmp,1,,,,,4,3,18,fish/one/1fish_1.bmp,2083,,,,,,,,,,trialproc,1,1,-999999,1,426329,1,3021,429350,fishsmall,,,,,,,,,,3.wav,fish.wav,,,,,,,,,,301
numbMap_ERP_TRNshortSMALL,2,2,0,"<?xml version=""1.0""?><Clock><Description>E-Prime SNTP Realtime Clock</Description><Version>2.0.8.50</Version><StartTime><DateUtc>2014-03-30T16:54:02Z</DateUtc><Timestamp>1300098392</Timestamp><Native>3605186893.2112706560</Native><Native1>3605186893</Native1><Native2>2112706560</Native2></StartTime><NTPServer><IP>10.0.0.42</IP><Port>123</Port></NTPServer></Clock>",1,59.941,1,left,,-1595484984,1,3/30/2014,11:54:02,4:54:02 PM,male,2,3,1,2,,,,fish,condlist,19,1,2,2,,,,,,,,,,,,,,,,,,,,breakproc,breaklist1,,,,,,,,,,,,,,,,,,,,,,,,,,,,,,,,,,,,,,,,,,,,,,,,,,,,,,,,,,,,,,,,,,,,,,,,
numbMap_ERP_TRNshortSMALL,2,2,0,"<?xml version=""1.0""?><Clock><Description>E-Prime SNTP Realtime Clock</Description><Version>2.0.8.50</Version><StartTime><DateUtc>2014-03-30T16:54:02Z</DateUtc><Timestamp>1300098392</Timestamp><Native>3605186893.2112706560</Native><Native1>3605186893</Native1><Native2>2112706560</Native2></StartTime><NTPServer><IP>10.0.0.42</IP><Port>123</Port></NTPServer></Clock>",1,59.941,1,left,,-1595484984,1,3/30/2014,11:54:02,4:54:02 PM,male,3,4,1,3,,,,moose,condlist,1,,,,,,,,,1,1,1,,,,,,,,,,,,MSML,mooseconds,,,,,,,,,1,0,4,0,52,465385,,0,0,smmed,29,small,4,,,,,,,,,,moose/two/2moose_1.bmp,2284,,,moose/two/2moose_1.bmp,1,,,2,1,1,trialproc,0,4,-999999,1,466386,1,1873,468259,moosesmall,,,,,,,,,,1r.wav,mooser.wav,,,,,,,,,,102
numbMap_ERP_TRNshortSMALL,2,2,0,"<?xml version=""1.0""?><Clock><Description>E-Prime SNTP Realtime Clock</Description><Version>2.0.8.50</Version><StartTime><DateUtc>2014-03-30T16:54:02Z</DateUtc><Timestamp>1300098392</Timestamp><Native>3605186893.2112706560</Native><Native1>3605186893</Native1><Native2>2112706560</Native2></StartTime><NTPServer><IP>10.0.0.42</IP><Port>123</Port></NTPServer></Clock>",1,59.941,1,left,,-1595484984,1,3/30/2014,11:54:02,4:54:02 PM,male,3,4,1,3,,,,moose,condlist,2,,,,,,,,,1,2,2,,,,,,,,,,,,MSML,mooseconds,,,,,,,,,1,0,4,0,33,474043,,0,0,smsm,30,small,4,,,,,,,,,,moose/three/3moose_1.bmp,2122,,,,,moose/three/3moose_1.bmp,1,3,1,2,trialproc,1,4,-999999,1,475044,4,318,475362,moosesmall,,,,,,,,,,2r.wav,mooser.wav,,,,,,,,,,203
numbMap_ERP_TRNshortSMALL,2,2,0,"<?xml version=""1.0""?><Clock><Description>E-Prime SNTP Realtime Clock</Description><Version>2.0.8.50</Version><StartTime><DateUtc>2014-03-30T16:54:02Z</DateUtc><Timestamp>1300098392</Timestamp><Native>3605186893.2112706560</Native><Native1>3605186893</Native1><Native2>2112706560</Native2></StartTime><NTPServer><IP>10.0.0.42</IP><Port>123</Port></NTPServer></Clock>",1,59.941,1,left,,-1595484984,1,3/30/2014,11:54:02,4:54:02 PM,male,3,4,1,3,,,,moose,condlist,3,,,,,,,,,1,3,3,,,,,,,,,,,,MSML,mooseconds,,,,,,,,,1,0,1,0,34,481000,,0,0,smlg,31,small,1,,,,,,,,,,moose/one/1moose_1.bmp,2441,moose/one/1moose_1.bmp,1,,,,,4,1,3,trialproc,1,1,-999999,1,482001,1,1791,483792,moosesmall,,,,,,,,,,3r.wav,mooser.wav,,,,,,,,,,301
numbMap_ERP_TRNshortSMALL,2,2,0,"<?xml version=""1.0""?><Clock><Description>E-Prime SNTP Realtime Clock</Description><Version>2.0.8.50</Version><StartTime><DateUtc>2014-03-30T16:54:02Z</DateUtc><Timestamp>1300098392</Timestamp><Native>3605186893.2112706560</Native><Native1>3605186893</Native1><Native2>2112706560</Native2></StartTime><NTPServer><IP>10.0.0.42</IP><Port>123</Port></NTPServer></Clock>",1,59.941,1,left,,-1595484984,1,3/30/2014,11:54:02,4:54:02 PM,male,3,4,1,3,,,,moose,condlist,4,,,,,,,,,1,4,4,,,,,,,,,,,,MSML,mooseconds,,,,,,,,,1,0,1,0,35,489709,,0,0,smmed,28,small,1,,,,,,,,,,moose/one/1moose_2.bmp,2197,moose/one/1moose_2.bmp,2,,,,,1,1,4,trialproc,1,1,-999999,1,490710,1,9578,500288,moosesmall,,,,,,,,,,2r.wav,mooser.wav,,,,,,,,,,201
numbMap_ERP_TRNshortSMALL,2,2,0,"<?xml version=""1.0""?><Clock><Description>E-Prime SNTP Realtime Clock</Description><Version>2.0.8.50</Version><StartTime><DateUtc>2014-03-30T16:54:02Z</DateUtc><Timestamp>1300098392</Timestamp><Native>3605186893.2112706560</Native><Native1>3605186893</Native1><Native2>2112706560</Native2></StartTime><NTPServer><IP>10.0.0.42</IP><Port>123</Port></NTPServer></Clock>",1,59.941,1,left,,-1595484984,1,3/30/2014,11:54:02,4:54:02 PM,male,3,4,1,3,,,,moose,condlist,5,,,,,,,,,1,5,5,,,,,,,,,,,,MSML,mooseconds,,,,,,,,,1,0,4,-999999,34,506008,1,658,506666,smlg,33,small,4,,,,,,,,,,moose/three/3moose_2.bmp,2407,,,,,moose/three/3moose_2.bmp,2,6,1,5,trialproc,1,1,-999999,1,490710,1,9578,500288,moosesmall,,,,,,,,,,1r.wav,mooser.wav,,,,,,,,,,103
numbMap_ERP_TRNshortSMALL,2,2,0,"<?xml version=""1.0""?><Clock><Description>E-Prime SNTP Realtime Clock</Description><Version>2.0.8.50</Version><StartTime><DateUtc>2014-03-30T16:54:02Z</DateUtc><Timestamp>1300098392</Timestamp><Native>3605186893.2112706560</Native><Native1>3605186893</Native1><Native2>2112706560</Native2></StartTime><NTPServer><IP>10.0.0.42</IP><Port>123</Port></NTPServer></Clock>",1,59.941,1,left,,-1595484984,1,3/30/2014,11:54:02,4:54:02 PM,male,3,4,1,3,,,,moose,condlist,6,,,,,,,,,1,6,6,,,,,,,,,,,,MSML,mooseconds,,,,,,,,,1,1,1,-999999,19,512532,1,707,513239,smsm,32,small,1,,,,,,,,,,moose/two/2moose_2.bmp,2485,,,moose/two/2moose_2.bmp,2,,,5,1,6,trialproc,1,1,-999999,1,490710,1,9578,500288,moosesmall,,,,,,,,,,3r.wav,mooser.wav,,,,,,,,,,302
numbMap_ERP_TRNshortSMALL,2,2,0,"<?xml version=""1.0""?><Clock><Description>E-Prime SNTP Realtime Clock</Description><Version>2.0.8.50</Version><StartTime><DateUtc>2014-03-30T16:54:02Z</DateUtc><Timestamp>1300098392</Timestamp><Native>3605186893.2112706560</Native><Native1>3605186893</Native1><Native2>2112706560</Native2></StartTime><NTPServer><IP>10.0.0.42</IP><Port>123</Port></NTPServer></Clock>",1,59.941,1,left,,-1595484984,1,3/30/2014,11:54:02,4:54:02 PM,male,3,4,1,3,,,,moose,condlist,7,,,,,,,,,1,7,7,,,,,,,,,,,,MSML,mooseconds,,,,,,,,,1,1,1,-999999,34,519204,1,585,519789,smlg,31,small,1,,,,,,,,,,moose/one/1moose_3.bmp,2293,moose/one/1moose_3.bmp,3,,,,,4,2,7,trialproc,1,1,-999999,1,490710,1,9578,500288,moosesmall,,,,,,,,,,3r.wav,mooser.wav,,,,,,,,,,301
numbMap_ERP_TRNshortSMALL,2,2,0,"<?xml version=""1.0""?><Clock><Description>E-Prime SNTP Realtime Clock</Description><Version>2.0.8.50</Version><StartTime><DateUtc>2014-03-30T16:54:02Z</DateUtc><Timestamp>1300098392</Timestamp><Native>3605186893.2112706560</Native><Native1>3605186893</Native1><Native2>2112706560</Native2></StartTime><NTPServer><IP>10.0.0.42</IP><Port>123</Port></NTPServer></Clock>",1,59.941,1,left,,-1595484984,1,3/30/2014,11:54:02,4:54:02 PM,male,3,4,1,3,,,,moose,condlist,8,,,,,,,,,1,8,8,,,,,,,,,,,,MSML,mooseconds,,,,,,,,,1,1,1,-999999,35,525561,1,634,526195,smmed,28,small,1,,,,,,,,,,moose/one/1moose_4.bmp,2397,moose/one/1moose_4.bmp,4,,,,,1,2,8,trialproc,1,1,-999999,1,490710,1,9578,500288,moosesmall,,,,,,,,,,2r.wav,mooser.wav,,,,,,,,,,201
numbMap_ERP_TRNshortSMALL,2,2,0,"<?xml version=""1.0""?><Clock><Description>E-Prime SNTP Realtime Clock</Description><Version>2.0.8.50</Version><StartTime><DateUtc>2014-03-30T16:54:02Z</DateUtc><Timestamp>1300098392</Timestamp><Native>3605186893.2112706560</Native><Native1>3605186893</Native1><Native2>2112706560</Native2></StartTime><NTPServer><IP>10.0.0.42</IP><Port>123</Port></NTPServer></Clock>",1,59.941,1,left,,-1595484984,1,3/30/2014,11:54:02,4:54:02 PM,male,3,4,1,3,,,,moose,condlist,9,,,,,,,,,1,9,9,,,,,,,,,,,,MSML,mooseconds,,,,,,,,,1,0,4,-999999,34,532084,1,846,532930,smlg,33,small,4,,,,,,,,,,moose/three/3moose_3.bmp,2184,,,,,moose/three/3moose_3.bmp,3,6,2,9,trialproc,1,1,-999999,1,490710,1,9578,500288,moosesmall,,,,,,,,,,1r.wav,mooser.wav,,,,,,,,,,103
numbMap_ERP_TRNshortSMALL,2,2,0,"<?xml version=""1.0""?><Clock><Description>E-Prime SNTP Realtime Clock</Description><Version>2.0.8.50</Version><StartTime><DateUtc>2014-03-30T16:54:02Z</DateUtc><Timestamp>1300098392</Timestamp><Native>3605186893.2112706560</Native><Native1>3605186893</Native1><Native2>2112706560</Native2></StartTime><NTPServer><IP>10.0.0.42</IP><Port>123</Port></NTPServer></Clock>",1,59.941,1,left,,-1595484984,1,3/30/2014,11:54:02,4:54:02 PM,male,3,4,1,3,,,,moose,condlist,10,,,,,,,,,1,10,10,,,,,,,,,,,,MSML,mooseconds,,,,,,,,,1,1,1,-999999,34,538607,1,749,539356,smsm,32,small,1,,,,,,,,,,moose/two/2moose_3.bmp,2332,,,moose/two/2moose_3.bmp,3,,,5,2,10,trialproc,1,1,-999999,1,490710,1,9578,500288,moosesmall,,,,,,,,,,3r.wav,mooser.wav,,,,,,,,,,302
numbMap_ERP_TRNshortSMALL,2,2,0,"<?xml version=""1.0""?><Clock><Description>E-Prime SNTP Realtime Clock</Description><Version>2.0.8.50</Version><StartTime><DateUtc>2014-03-30T16:54:02Z</DateUtc><Timestamp>1300098392</Timestamp><Native>3605186893.2112706560</Native><Native1>3605186893</Native1><Native2>2112706560</Native2></StartTime><NTPServer><IP>10.0.0.42</IP><Port>123</Port></NTPServer></Clock>",1,59.941,1,left,,-1595484984,1,3/30/2014,11:54:02,4:54:02 PM,male,3,4,1,3,,,,moose,condlist,11,,,,,,,,,1,11,11,,,,,,,,,,,,MSML,mooseconds,,,,,,,,,1,0,4,0,34,545163,,0,0,smsm,30,small,4,,,,,,,,,,moose/three/3moose_4.bmp,2254,,,,,moose/three/3moose_4.bmp,4,3,2,11,trialproc,1,4,-999999,1,546164,4,3502,549666,moosesmall,,,,,,,,,,2r.wav,mooser.wav,,,,,,,,,,203
numbMap_ERP_TRNshortSMALL,2,2,0,"<?xml version=""1.0""?><Clock><Description>E-Prime SNTP Realtime Clock</Description><Version>2.0.8.50</Version><StartTime><DateUtc>2014-03-30T16:54:02Z</DateUtc><Timestamp>1300098392</Timestamp><Native>3605186893.2112706560</Native><Native1>3605186893</Native1><Native2>2112706560</Native2></StartTime><NTPServer><IP>10.0.0.42</IP><Port>123</Port></NTPServer></Clock>",1,59.941,1,left,,-1595484984,1,3/30/2014,11:54:02,4:54:02 PM,male,3,4,1,3,,,,moose,condlist,12,,,,,,,,,1,12,12,,,,,,,,,,,,MSML,mooseconds,,,,,,,,,1,0,4,0,35,555424,,0,0,smmed,29,small,4,,,,,,,,,,moose/two/2moose_4.bmp,2286,,,moose/two/2moose_4.bmp,4,,,2,2,12,trialproc,0,4,-999999,1,556425,1,4249,560674,moosesmall,,,,,,,,,,1r.wav,mooser.wav,,,,,,,,,,102
numbMap_ERP_TRNshortSMALL,2,2,0,"<?xml version=""1.0""?><Clock><Description>E-Prime SNTP Realtime Clock</Description><Version>2.0.8.50</Version><StartTime><DateUtc>2014-03-30T16:54:02Z</DateUtc><Timestamp>1300098392</Timestamp><Native>3605186893.2112706560</Native><Native1>3605186893</Native1><Native2>2112706560</Native2></StartTime><NTPServer><IP>10.0.0.42</IP><Port>123</Port></NTPServer></Clock>",1,59.941,1,left,,-1595484984,1,3/30/2014,11:54:02,4:54:02 PM,male,3,4,1,3,,,,moose,condlist,13,,,,,,,,,1,13,13,,,,,,,,,,,,MSML,mooseconds,,,,,,,,,1,0,4,0,35,566468,,0,0,smlg,33,small,4,,,,,,,,,,moose/three/3moose_5.bmp,2110,,,,,moose/three/3moose_5.bmp,5,6,3,13,trialproc,0,4,-999999,1,567469,1,506,567975,moosesmall,,,,,,,,,,1r.wav,mooser.wav,,,,,,,,,,103
numbMap_ERP_TRNshortSMALL,2,2,0,"<?xml version=""1.0""?><Clock><Description>E-Prime SNTP Realtime Clock</Description><Version>2.0.8.50</Version><StartTime><DateUtc>2014-03-30T16:54:02Z</DateUtc><Timestamp>1300098392</Timestamp><Native>3605186893.2112706560</Native><Native1>3605186893</Native1><Native2>2112706560</Native2></StartTime><NTPServer><IP>10.0.0.42</IP><Port>123</Port></NTPServer></Clock>",1,59.941,1,left,,-1595484984,1,3/30/2014,11:54:02,4:54:02 PM,male,3,4,1,3,,,,moose,condlist,14,,,,,,,,,1,14,14,,,,,,,,,,,,MSML,mooseconds,,,,,,,,,1,0,1,0,34,573591,,0,0,smsm,32,small,1,,,,,,,,,,moose/two/2moose_5.bmp,2170,,,moose/two/2moose_5.bmp,5,,,5,3,14,trialproc,1,1,-999999,1,574592,1,1559,576151,moosesmall,,,,,,,,,,3r.wav,mooser.wav,,,,,,,,,,302
numbMap_ERP_TRNshortSMALL,2,2,0,"<?xml version=""1.0""?><Clock><Description>E-Prime SNTP Realtime Clock</Description><Version>2.0.8.50</Version><StartTime><DateUtc>2014-03-30T16:54:02Z</DateUtc><Timestamp>1300098392</Timestamp><Native>3605186893.2112706560</Native><Native1>3605186893</Native1><Native2>2112706560</Native2></StartTime><NTPServer><IP>10.0.0.42</IP><Port>123</Port></NTPServer></Clock>",1,59.941,1,left,,-1595484984,1,3/30/2014,11:54:02,4:54:02 PM,male,3,4,1,3,,,,moose,condlist,15,,,,,,,,,1,15,15,,,,,,,,,,,,MSML,mooseconds,,,,,,,,,1,0,1,0,34,581833,,0,0,smmed,28,small,1,,,,,,,,,,moose/one/1moose_5.bmp,2346,moose/one/1moose_5.bmp,5,,,,,1,3,15,trialproc,1,1,-999999,1,582834,1,4424,587258,moosesmall,,,,,,,,,,2r.wav,mooser.wav,,,,,,,,,,201
numbMap_ERP_TRNshortSMALL,2,2,0,"<?xml version=""1.0""?><Clock><Description>E-Prime SNTP Realtime Clock</Description><Version>2.0.8.50</Version><StartTime><DateUtc>2014-03-30T16:54:02Z</DateUtc><Timestamp>1300098392</Timestamp><Native>3605186893.2112706560</Native><Native1>3605186893</Native1><Native2>2112706560</Native2></StartTime><NTPServer><IP>10.0.0.42</IP><Port>123</Port></NTPServer></Clock>",1,59.941,1,left,,-1595484984,1,3/30/2014,11:54:02,4:54:02 PM,male,3,4,1,3,,,,moose,condlist,16,,,,,,,,,1,16,16,,,,,,,,,,,,MSML,mooseconds,,,,,,,,,1,0,4,-999999,17,593077,1,962,594039,smsm,30,small,4,,,,,,,,,,moose/three/3moose_1.bmp,2149,,,,,moose/three/3moose_1.bmp,1,3,3,16,trialproc,1,1,-999999,1,582834,1,4424,587258,moosesmall,,,,,,,,,,2r.wav,mooser.wav,,,,,,,,,,203
numbMap_ERP_TRNshortSMALL,2,2,0,"<?xml version=""1.0""?><Clock><Description>E-Prime SNTP Realtime Clock</Description><Version>2.0.8.50</Version><StartTime><DateUtc>2014-03-30T16:54:02Z</DateUtc><Timestamp>1300098392</Timestamp><Native>3605186893.2112706560</Native><Native1>3605186893</Native1><Native2>2112706560</Native2></StartTime><NTPServer><IP>10.0.0.42</IP><Port>123</Port></NTPServer></Clock>",1,59.941,1,left,,-1595484984,1,3/30/2014,11:54:02,4:54:02 PM,male,3,4,1,3,,,,moose,condlist,17,,,,,,,,,1,17,17,,,,,,,,,,,,MSML,mooseconds,,,,,,,,,1,0,1,0,18,599651,,0,0,smlg,31,small,1,,,,,,,,,,moose/one/1moose_1.bmp,2310,moose/one/1moose_1.bmp,1,,,,,4,3,17,trialproc,1,1,-999999,1,600652,1,35,600687,moosesmall,,,,,,,,,,3r.wav,mooser.wav,,,,,,,,,,301
numbMap_ERP_TRNshortSMALL,2,2,0,"<?xml version=""1.0""?><Clock><Description>E-Prime SNTP Realtime Clock</Description><Version>2.0.8.50</Version><StartTime><DateUtc>2014-03-30T16:54:02Z</DateUtc><Timestamp>1300098392</Timestamp><Native>3605186893.2112706560</Native><Native1>3605186893</Native1><Native2>2112706560</Native2></StartTime><NTPServer><IP>10.0.0.42</IP><Port>123</Port></NTPServer></Clock>",1,59.941,1,left,,-1595484984,1,3/30/2014,11:54:02,4:54:02 PM,male,3,4,1,3,,,,moose,condlist,18,,,,,,,,,1,18,18,,,,,,,,,,,,MSML,mooseconds,,,,,,,,,1,0,4,-999999,18,606491,1,565,607056,smmed,29,small,4,,,,,,,,,,moose/two/2moose_1.bmp,2391,,,moose/two/2moose_1.bmp,1,,,2,3,18,trialproc,1,1,-999999,1,600652,1,35,600687,moosesmall,,,,,,,,,,1r.wav,mooser.wav,,,,,,,,,,102
numbMap_ERP_TRNshortSMALL,2,2,0,"<?xml version=""1.0""?><Clock><Description>E-Prime SNTP Realtime Clock</Description><Version>2.0.8.50</Version><StartTime><DateUtc>2014-03-30T16:54:02Z</DateUtc><Timestamp>1300098392</Timestamp><Native>3605186893.2112706560</Native><Native1>3605186893</Native1><Native2>2112706560</Native2></StartTime><NTPServer><IP>10.0.0.42</IP><Port>123</Port></NTPServer></Clock>",1,59.941,1,left,,-1595484984,1,3/30/2014,11:54:02,4:54:02 PM,male,3,4,1,3,,,,moose,condlist,19,1,3,3,,,,,,,,,,,,,,,,,,,,breakproc,breaklist1,,,,,,,,,,,,,,,,,,,,,,,,,,,,,,,,,,,,,,,,,,,,,,,,,,,,,,,,,,,,,,,,,,,,,,,,
numbMap_ERP_TRNshortSMALL_pract,10,1,0,"<?xml version=""1.0""?><Clock><Description>E-Prime SNTP Realtime Clock</Description><Version>2.0.8.50</Version><StartTime><DateUtc>2014-05-07T16:09:18Z</DateUtc><Timestamp>-1343934920</Timestamp><Native>3608467375.3845011456</Native><Native1>3608467375</Native1><Native2>3845011456</Native2></StartTime><NTPServer><IP>10.0.0.42</IP><Port>123</Port></NTPServer></Clock>",1,59.963,1,left,,-822072803,1,5/7/2014,11:09:18,4:09:18 PM,male,1,,,,1,1,1,pracproc,List1,1,,,,4,,,,squid/three/3squid_1.bmp,,,,1,4,-999999,34,137675,4,6428,144103,1,1,1,practrialproc,praclists,,,,1r.wav,squidr.wav,,,,,,,,,,,,,,,,,,,,,,,,,,,,,,,,,,,,,,,,,,,,,,,,,,,,,,,,,,,,,,,,,,,
numbMap_ERP_TRNshortSMALL_pract,10,1,0,"<?xml version=""1.0""?><Clock><Description>E-Prime SNTP Realtime Clock</Description><Version>2.0.8.50</Version><StartTime><DateUtc>2014-05-07T16:09:18Z</DateUtc><Timestamp>-1343934920</Timestamp><Native>3608467375.3845011456</Native><Native1>3608467375</Native1><Native2>3845011456</Native2></StartTime><NTPServer><IP>10.0.0.42</IP><Port>123</Port></NTPServer></Clock>",1,59.963,1,left,,-822072803,1,5/7/2014,11:09:18,4:09:18 PM,male,1,,,,1,1,1,pracproc,List1,2,,,,1,,,,squid/one/1squid_1.bmp,,,,1,1,-999999,34,149320,1,7337,156657,2,1,2,practrialproc,praclists,,,,3r.wav,squidr.wav,,,,,,,,,,,,,,,,,,,,,,,,,,,,,,,,,,,,,,,,,,,,,,,,,,,,,,,,,,,,,,,,,,,
numbMap_ERP_TRNshortSMALL_pract,10,1,0,"<?xml version=""1.0""?><Clock><Description>E-Prime SNTP Realtime Clock</Description><Version>2.0.8.50</Version><StartTime><DateUtc>2014-05-07T16:09:18Z</DateUtc><Timestamp>-1343934920</Timestamp><Native>3608467375.3845011456</Native><Native1>3608467375</Native1><Native2>3845011456</Native2></StartTime><NTPServer><IP>10.0.0.42</IP><Port>123</Port></NTPServer></Clock>",1,59.963,1,left,,-822072803,1,5/7/2014,11:09:18,4:09:18 PM,male,1,,,,1,1,1,pracproc,List1,3,,,,1,,,,squid/one/1squid_1.bmp,,,,1,1,-999999,17,161882,1,2345,164227,3,1,3,practrialproc,praclists,,,,2r.wav,squidr.wav,,,,,,,,,,,,,,,,,,,,,,,,,,,,,,,,,,,,,,,,,,,,,,,,,,,,,,,,,,,,,,,,,,,
numbMap_ERP_TRNshortSMALL_pract,10,1,0,"<?xml version=""1.0""?><Clock><Description>E-Prime SNTP Realtime Clock</Description><Version>2.0.8.50</Version><StartTime><DateUtc>2014-05-07T16:09:18Z</DateUtc><Timestamp>-1343934920</Timestamp><Native>3608467375.3845011456</Native><Native1>3608467375</Native1><Native2>3845011456</Native2></StartTime><NTPServer><IP>10.0.0.42</IP><Port>123</Port></NTPServer></Clock>",1,59.963,1,left,,-822072803,1,5/7/2014,11:09:18,4:09:18 PM,male,2,2,1,1,,,,sheep,condlist,1,,,,,,,,,,,,,,,,,,,,,,,SHSML,sheepconds,1,1,1,,,,,,1,0,1,0,51,172710,,0,0,smlg,31,small,1,,,,,,,,,,sheep/one/1sheep_1.bmp,2460,,,,,,,,,,trialproc,1,1,-999999,1,173711,1,2456,176167,sheepsmall,sheep/one/1sheep_1.bmp,1,,,,,4,1,1,3.wav,sheep.wav,,,,,,,,,,301
numbMap_ERP_TRNshortSMALL_pract,10,1,0,"<?xml version=""1.0""?><Clock><Description>E-Prime SNTP Realtime Clock</Description><Version>2.0.8.50</Version><StartTime><DateUtc>2014-05-07T16:09:18Z</DateUtc><Timestamp>-1343934920</Timestamp><Native>3608467375.3845011456</Native><Native1>3608467375</Native1><Native2>3845011456</Native2></StartTime><NTPServer><IP>10.0.0.42</IP><Port>123</Port></NTPServer></Clock>",1,59.963,1,left,,-822072803,1,5/7/2014,11:09:18,4:09:18 PM,male,2,2,1,1,,,,sheep,condlist,2,,,,,,,,,,,,,,,,,,,,,,,SHSML,sheepconds,1,2,2,,,,,,1,0,1,0,34,182119,,0,0,smsm,32,small,1,,,,,,,,,,sheep/two/2sheep_1.bmp,2431,,,,,,,,,,trialproc,0,1,-999999,1,183120,4,1779,184899,sheepsmall,,,sheep/two/2sheep_1.bmp,1,,,5,1,2,3.wav,sheep.wav,,,,,,,,,,302
numbMap_ERP_TRNshortSMALL_pract,10,1,0,"<?xml version=""1.0""?><Clock><Description>E-Prime SNTP Realtime Clock</Description><Version>2.0.8.50</Version><StartTime><DateUtc>2014-05-07T16:09:18Z</DateUtc><Timestamp>-1343934920</Timestamp><Native>3608467375.3845011456</Native><Native1>3608467375</Native1><Native2>3845011456</Native2></StartTime><NTPServer><IP>10.0.0.42</IP><Port>123</Port></NTPServer></Clock>",1,59.963,1,left,,-822072803,1,5/7/2014,11:09:18,4:09:18 PM,male,2,2,1,1,,,,sheep,condlist,3,,,,,,,,,,,,,,,,,,,,,,,SHSML,sheepconds,1,3,3,,,,,,1,0,4,0,34,190811,,0,0,smsm,30,small,4,,,,,,,,,,sheep/three/3sheep_1.bmp,2140,,,,,,,,,,trialproc,1,4,-999999,1,191812,4,788,192600,sheepsmall,,,,,sheep/three/3sheep_1.bmp,1,3,1,3,2.wav,sheep.wav,,,,,,,,,,203
numbMap_ERP_TRNshortSMALL_pract,10,1,0,"<?xml version=""1.0""?><Clock><Description>E-Prime SNTP Realtime Clock</Description><Version>2.0.8.50</Version><StartTime><DateUtc>2014-05-07T16:09:18Z</DateUtc><Timestamp>-1343934920</Timestamp><Native>3608467375.3845011456</Native><Native1>3608467375</Native1><Native2>3845011456</Native2></StartTime><NTPServer><IP>10.0.0.42</IP><Port>123</Port></NTPServer></Clock>",1,59.963,1,left,,-822072803,1,5/7/2014,11:09:18,4:09:18 PM,male,2,2,1,1,,,,sheep,condlist,4,,,,,,,,,,,,,,,,,,,,,,,SHSML,sheepconds,1,4,4,,,,,,1,0,1,0,34,198218,,0,0,smmed,28,small,1,,,,,,,,,,sheep/one/1sheep_2.bmp,2433,,,,,,,,,,trialproc,1,1,-999999,1,199219,1,138,199357,sheepsmall,sheep/one/1sheep_2.bmp,2,,,,,1,1,4,2.wav,sheep.wav,,,,,,,,,,201
numbMap_ERP_TRNshortSMALL_pract,10,1,0,"<?xml version=""1.0""?><Clock><Description>E-Prime SNTP Realtime Clock</Description><Version>2.0.8.50</Version><StartTime><DateUtc>2014-05-07T16:09:18Z</DateUtc><Timestamp>-1343934920</Timestamp><Native>3608467375.3845011456</Native><Native1>3608467375</Native1><Native2>3845011456</Native2></StartTime><NTPServer><IP>10.0.0.42</IP><Port>123</Port></NTPServer></Clock>",1,59.963,1,left,,-822072803,1,5/7/2014,11:09:18,4:09:18 PM,male,2,2,1,1,,,,sheep,condlist,5,,,,,,,,,,,,,,,,,,,,,,,SHSML,sheepconds,1,5,5,,,,,,1,0,4,0,34,205325,,0,0,smmed,29,small,4,,,,,,,,,,sheep/two/2sheep_2.bmp,2417,,,,,,,,,,trialproc,0,4,-999999,1,206326,1,10832,217158,sheepsmall,,,sheep/two/2sheep_2.bmp,2,,,2,1,5,1.wav,sheep.wav,,,,,,,,,,102
numbMap_ERP_TRNshortSMALL_pract,10,1,0,"<?xml version=""1.0""?><Clock><Description>E-Prime SNTP Realtime Clock</Description><Version>2.0.8.50</Version><StartTime><DateUtc>2014-05-07T16:09:18Z</DateUtc><Timestamp>-1343934920</Timestamp><Native>3608467375.3845011456</Native><Native1>3608467375</Native1><Native2>3845011456</Native2></StartTime><NTPServer><IP>10.0.0.42</IP><Port>123</Port></NTPServer></Clock>",1,59.963,1,left,,-822072803,1,5/7/2014,11:09:18,4:09:18 PM,male,2,2,1,1,,,,sheep,condlist,6,,,,,,,,,,,,,,,,,,,,,,,SHSML,sheepconds,1,6,6,,,,,,1,0,4,0,34,223026,,0,0,smlg,33,small,4,,,,,,,,,,sheep/three/3sheep_2.bmp,2002,,,,,,,,,,trialproc,1,4,-999999,1,224027,4,480,224507,sheepsmall,,,,,sheep/three/3sheep_2.bmp,2,6,1,6,1.wav,sheep.wav,,,,,,,,,,103
numbMap_ERP_TRNshortSMALL_pract,10,1,0,"<?xml version=""1.0""?><Clock><Description>E-Prime SNTP Realtime Clock</Description><Version>2.0.8.50</Version><StartTime><DateUtc>2014-05-07T16:09:18Z</DateUtc><Timestamp>-1343934920</Timestamp><Native>3608467375.3845011456</Native><Native1>3608467375</Native1><Native2>3845011456</Native2></StartTime><NTPServer><IP>10.0.0.42</IP><Port>123</Port></NTPServer></Clock>",1,59.963,1,left,,-822072803,1,5/7/2014,11:09:18,4:09:18 PM,male,2,2,1,1,,,,sheep,condlist,7,,,,,,,,,,,,,,,,,,,,,,,SHSML,sheepconds,1,7,7,,,,,,1,0,1,0,34,230000,,0,0,smlg,31,small,1,,,,,,,,,,sheep/one/1sheep_3.bmp,2461,,,,,,,,,,trialproc,1,1,-999999,1,231001,1,153,231154,sheepsmall,sheep/one/1sheep_3.bmp,3,,,,,4,2,7,3.wav,sheep.wav,,,,,,,,,,301
numbMap_ERP_TRNshortSMALL_pract,10,1,0,"<?xml version=""1.0""?><Clock><Description>E-Prime SNTP Realtime Clock</Description><Version>2.0.8.50</Version><StartTime><DateUtc>2014-05-07T16:09:18Z</DateUtc><Timestamp>-1343934920</Timestamp><Native>3608467375.3845011456</Native><Native1>3608467375</Native1><Native2>3845011456</Native2></StartTime><NTPServer><IP>10.0.0.42</IP><Port>123</Port></NTPServer></Clock>",1,59.963,1,left,,-822072803,1,5/7/2014,11:09:18,4:09:18 PM,male,2,2,1,1,,,,sheep,condlist,8,,,,,,,,,,,,,,,,,,,,,,,SHSML,sheepconds,1,8,8,,,,,,1,0,4,0,35,237124,,0,0,smmed,29,small,4,,,,,,,,,,sheep/two/2sheep_3.bmp,2061,,,,,,,,,,trialproc,0,4,-999999,1,238125,1,1177,239302,sheepsmall,,,sheep/two/2sheep_3.bmp,3,,,2,2,8,1.wav,sheep.wav,,,,,,,,,,102
numbMap_ERP_TRNshortSMALL_pract,10,1,0,"<?xml version=""1.0""?><Clock><Description>E-Prime SNTP Realtime Clock</Description><Version>2.0.8.50</Version><StartTime><DateUtc>2014-05-07T16:09:18Z</DateUtc><Timestamp>-1343934920</Timestamp><Native>3608467375.3845011456</Native><Native1>3608467375</Native1><Native2>3845011456</Native2></StartTime><NTPServer><IP>10.0.0.42</IP><Port>123</Port></NTPServer></Clock>",1,59.963,1,left,,-822072803,1,5/7/2014,11:09:18,4:09:18 PM,male,2,2,1,1,,,,sheep,condlist,9,,,,,,,,,,,,,,,,,,,,,,,SHSML,sheepconds,1,9,9,,,,,,1,0,1,0,18,244815,,0,0,smsm,32,small,1,,,,,,,,,,sheep/two/2sheep_4.bmp,2040,,,,,,,,,,trialproc,0,1,-999999,1,245816,4,327,246143,sheepsmall,,,sheep/two/2sheep_4.bmp,4,,,5,2,9,3.wav,sheep.wav,,,,,,,,,,302
numbMap_ERP_TRNshortSMALL_pract,10,1,0,"<?xml version=""1.0""?><Clock><Description>E-Prime SNTP Realtime Clock</Description><Version>2.0.8.50</Version><StartTime><DateUtc>2014-05-07T16:09:18Z</DateUtc><Timestamp>-1343934920</Timestamp><Native>3608467375.3845011456</Native><Native1>3608467375</Native1><Native2>3845011456</Native2></StartTime><NTPServer><IP>10.0.0.42</IP><Port>123</Port></NTPServer></Clock>",1,59.963,1,left,,-822072803,1,5/7/2014,11:09:18,4:09:18 PM,male,2,2,1,1,,,,sheep,condlist,10,,,,,,,,,,,,,,,,,,,,,,,SHSML,sheepconds,1,10,10,,,,,,1,0,4,0,35,251655,,0,0,smlg,33,small,4,,,,,,,,,,sheep/three/3sheep_3.bmp,2232,,,,,,,,,,trialproc,1,4,-999999,1,252656,4,289,252945,sheepsmall,,,,,sheep/three/3sheep_3.bmp,3,6,2,10,1.wav,sheep.wav,,,,,,,,,,103
numbMap_ERP_TRNshortSMALL_pract,10,1,0,"<?xml version=""1.0""?><Clock><Description>E-Prime SNTP Realtime Clock</Description><Version>2.0.8.50</Version><StartTime><DateUtc>2014-05-07T16:09:18Z</DateUtc><Timestamp>-1343934920</Timestamp><Native>3608467375.3845011456</Native><Native1>3608467375</Native1><Native2>3845011456</Native2></StartTime><NTPServer><IP>10.0.0.42</IP><Port>123</Port></NTPServer></Clock>",1,59.963,1,left,,-822072803,1,5/7/2014,11:09:18,4:09:18 PM,male,2,2,1,1,,,,sheep,condlist,11,,,,,,,,,,,,,,,,,,,,,,,SHSML,sheepconds,1,11,11,,,,,,1,0,1,0,34,258678,,0,0,smmed,28,small,1,,,,,,,,,,sheep/one/1sheep_4.bmp,2215,,,,,,,,,,trialproc,0,1,-999999,1,259679,4,12158,271837,sheepsmall,sheep/one/1sheep_4.bmp,4,,,,,1,2,11,2.wav,sheep.wav,,,,,,,,,,201
numbMap_ERP_TRNshortSMALL_pract,10,1,0,"<?xml version=""1.0""?><Clock><Description>E-Prime SNTP Realtime Clock</Description><Version>2.0.8.50</Version><StartTime><DateUtc>2014-05-07T16:09:18Z</DateUtc><Timestamp>-1343934920</Timestamp><Native>3608467375.3845011456</Native><Native1>3608467375</Native1><Native2>3845011456</Native2></StartTime><NTPServer><IP>10.0.0.42</IP><Port>123</Port></NTPServer></Clock>",1,59.963,1,left,,-822072803,1,5/7/2014,11:09:18,4:09:18 PM,male,2,2,1,1,,,,sheep,condlist,12,,,,,,,,,,,,,,,,,,,,,,,SHSML,sheepconds,1,12,12,,,,,,1,0,4,0,34,277547,,0,0,smsm,30,small,4,,,,,,,,,,sheep/three/3sheep_4.bmp,2154,,,,,,,,,,trialproc,1,4,-999999,1,278548,4,3535,282083,sheepsmall,,,,,sheep/three/3sheep_4.bmp,4,3,2,12,2.wav,sheep.wav,,,,,,,,,,203
numbMap_ERP_TRNshortSMALL_pract,10,1,0,"<?xml version=""1.0""?><Clock><Description>E-Prime SNTP Realtime Clock</Description><Version>2.0.8.50</Version><StartTime><DateUtc>2014-05-07T16:09:18Z</DateUtc><Timestamp>-1343934920</Timestamp><Native>3608467375.3845011456</Native><Native1>3608467375</Native1><Native2>3845011456</Native2></StartTime><NTPServer><IP>10.0.0.42</IP><Port>123</Port></NTPServer></Clock>",1,59.963,1,left,,-822072803,1,5/7/2014,11:09:18,4:09:18 PM,male,2,2,1,1,,,,sheep,condlist,13,,,,,,,,,,,,,,,,,,,,,,,SHSML,sheepconds,1,13,13,,,,,,1,0,1,0,34,287707,,0,0,smmed,28,small,1,,,,,,,,,,sheep/one/1sheep_5.bmp,2228,,,,,,,,,,trialproc,1,1,-999999,1,288708,1,1832,290540,sheepsmall,sheep/one/1sheep_5.bmp,5,,,,,1,3,13,2.wav,sheep.wav,,,,,,,,,,201
numbMap_ERP_TRNshortSMALL_pract,10,1,0,"<?xml version=""1.0""?><Clock><Description>E-Prime SNTP Realtime Clock</Description><Version>2.0.8.50</Version><StartTime><DateUtc>2014-05-07T16:09:18Z</DateUtc><Timestamp>-1343934920</Timestamp><Native>3608467375.3845011456</Native><Native1>3608467375</Native1><Native2>3845011456</Native2></StartTime><NTPServer><IP>10.0.0.42</IP><Port>123</Port></NTPServer></Clock>",1,59.963,1,left,,-822072803,1,5/7/2014,11:09:18,4:09:18 PM,male,2,2,1,1,,,,sheep,condlist,14,,,,,,,,,,,,,,,,,,,,,,,SHSML,sheepconds,1,14,14,,,,,,1,0,1,0,34,296282,,0,0,smsm,32,small,1,,,,,,,,,,sheep/two/2sheep_5.bmp,2079,,,,,,,,,,trialproc,0,1,-999999,1,297283,4,1229,298512,sheepsmall,,,sheep/two/2sheep_5.bmp,5,,,5,3,14,3.wav,sheep.wav,,,,,,,,,,302
